time,aX,aY,aZ,wX,wY,wZ,mX,mY,mZ
6.85904E+12,4.8809333,6.112244,6.822739,0.3736509,0.46863002,0.78964597,-84.03559,-77.18791,-15.793936
6.85906E+12,4.8809333,6.112244,6.822739,-0.11853995,0.58368754,0.5142535,-84.03559,-77.18791,-15.793936
6.85905E+12,6.250919,7.0559053,6.3221674,-0.11853995,0.58368754,0.5142535,-84.03559,-77.18791,-15.793936
6.85906E+12,6.250919,7.0559053,6.3221674,-0.11853995,0.58368754,0.5142535,-83.83463,-76.36003,-13.851417
6.85908E+12,6.250919,7.0559053,6.3221674,-0.08018742,-0.1945492,-0.18408217,-83.83463,-76.36003,-13.851417
6.85907E+12,2.124196,5.537425,8.429838,-0.08018742,-0.1945492,-0.18408217,-83.83463,-76.36003,-13.851417
6.85908E+12,2.124196,5.537425,8.429838,-0.08018742,-0.1945492,-0.18408217,-83.95241,-75.32068,-13.7499485
6.8591E+12,2.124196,5.537425,8.429838,0.037533548,-0.3644722,-0.14466427,-83.95241,-75.32068,-13.7499485
6.85909E+12,-0.01700544,4.617714,9.162733,0.037533548,-0.3644722,-0.14466427,-83.95241,-75.32068,-13.7499485
6.8591E+12,-0.01700544,4.617714,9.162733,0.037533548,-0.3644722,-0.14466427,-83.306076,-75.64016,-12.8087225
6.85912E+12,-0.01700544,4.617714,9.162733,-0.11108252,0.13677405,0.451398,-83.306076,-75.64016,-12.8087225
6.85911E+12,3.5420835,5.8272295,7.2873845,-0.11108252,0.13677405,0.451398,-83.306076,-75.64016,-12.8087225
6.85912E+12,3.5420835,5.8272295,7.2873845,-0.11108252,0.13677405,0.451398,-83.303116,-75.67008,-15.6956
6.85913E+12,5.54437,6.4427648,6.39881,-0.11108252,0.13677405,0.451398,-83.303116,-75.67008,-15.6956
6.85914E+12,5.54437,6.4427648,6.39881,-0.30071446,0.13091463,0.49188122,-83.303116,-75.67008,-15.6956
6.85914E+12,5.54437,6.4427648,6.39881,-0.30071446,0.13091463,0.49188122,-86.00285,-76.71729,-14.795325
6.85915E+12,4.763574,5.5230546,7.9867477,-0.30071446,0.13091463,0.49188122,-86.00285,-76.71729,-14.795325
6.85916E+12,4.763574,5.5230546,7.9867477,-0.51964355,0.032369934,0.122738086,-86.00285,-76.71729,-14.795325
6.85916E+12,4.763574,5.5230546,7.9867477,-0.51964355,0.032369934,0.122738086,-84.15522,-76.12966,-13.869178
6.85917E+12,2.176888,4.5410714,8.540012,-0.51964355,0.032369934,0.122738086,-84.15522,-76.12966,-13.869178
6.85918E+12,2.176888,4.5410714,8.540012,-0.49993458,0.20655435,-0.030672038,-84.15522,-76.12966,-13.869178
6.85918E+12,2.176888,4.5410714,8.540012,-0.49993458,0.20655435,-0.030672038,-84.78481,-75.39904,-13.30882
6.8592E+12,3.3840082,5.434437,6.868246,-0.49993458,0.20655435,-0.030672038,-84.78481,-75.39904,-13.30882
6.8592E+12,3.3840082,5.434437,6.868246,-0.36676604,0.4659666,0.42849296,-84.78481,-75.39904,-13.30882
6.8592E+12,3.3840082,5.434437,6.868246,-0.36676604,0.4659666,0.42849296,-84.908356,-74.49464,-13.505292
6.85922E+12,6.042547,6.4451604,6.341328,-0.36676604,0.4659666,0.42849296,-84.908356,-74.49464,-13.505292
6.85922E+12,6.042547,6.4451604,6.341328,-0.5968812,0.595939,0.74064,-84.908356,-74.49464,-13.505292
6.85922E+12,6.042547,6.4451604,6.341328,-0.5968812,0.595939,0.74064,-84.20514,-73.64839,-14.592774
6.85924E+12,6.042547,6.4451604,6.341328,-0.9186164,0.54054093,0.56166154,-84.20514,-73.64839,-14.592774
6.85924E+12,5.225825,6.0787134,8.391517,-0.9186164,0.54054093,0.56166154,-84.20514,-73.64839,-14.592774
6.85924E+12,5.225825,6.0787134,8.391517,-0.9186164,0.54054093,0.56166154,-86.905014,-74.69404,-13.540558
6.85926E+12,3.9612224,5.439226,9.06693,-0.9186164,0.54054093,0.56166154,-86.905014,-74.69404,-13.540558
6.85926E+12,3.9612224,5.439226,9.06693,-0.72791916,0.4542478,0.4279603,-86.905014,-74.69404,-13.540558
6.85926E+12,3.9612224,5.439226,9.06693,-0.72791916,0.4542478,0.4279603,-86.072296,-74.61883,-14.285568
6.85928E+12,3.9612224,5.439226,9.06693,-0.2852669,0.32960206,0.43488508,-86.072296,-74.61883,-14.285568
6.85928E+12,3.9612224,5.439226,9.06693,-0.2852669,0.32960206,0.43488508,-85.86715,-73.83346,-16.445454
6.85928E+12,3.712134,5.1015205,7.6729927,-0.2852669,0.32960206,0.43488508,-85.86715,-73.83346,-16.445454
6.8593E+12,3.736085,6.061947,6.5377245,-0.2852669,0.32960206,0.43488508,-85.86715,-73.83346,-16.445454
6.8593E+12,3.736085,6.061947,6.5377245,-0.2852669,0.32960206,0.43488508,-84.23563,-74.30739,-14.563066
6.8593E+12,3.736085,6.061947,6.5377245,-0.17979747,0.23265538,0.5819031,-84.23563,-74.30739,-14.563066
6.85932E+12,3.736085,6.061947,6.5377245,-0.48129097,0.16553845,0.6607389,-84.23563,-74.30739,-14.563066
6.85932E+12,5.575506,7.2020054,7.0646424,-0.48129097,0.16553845,0.6607389,-84.23563,-74.30739,-14.563066
6.85932E+12,5.575506,7.2020054,7.0646424,-0.48129097,0.16553845,0.6607389,-86.496735,-73.10283,-15.885096
6.85934E+12,5.575506,7.2020054,7.0646424,-0.5223069,-0.24515323,0.32249087,-86.496735,-73.10283,-15.885096
6.85934E+12,5.185108,7.094227,9.502834,-0.5223069,-0.24515323,0.32249087,-86.496735,-73.10283,-15.885096
6.85934E+12,5.185108,7.094227,9.502834,-0.5223069,-0.24515323,0.32249087,-86.46812,-72.424934,-14.091514
6.85936E+12,5.185108,7.094227,9.502834,-0.12013797,-0.490716,-0.048250277,-86.46812,-72.424934,-14.091514
6.85936E+12,3.0127707,6.7277794,9.783059,-0.12013797,-0.490716,-0.048250277,-86.46812,-72.424934,-14.091514
6.85936E+12,3.0127707,6.7277794,9.783059,-0.12013797,-0.490716,-0.048250277,-86.80058,-72.46132,-14.401273
6.85938E+12,2.7493117,7.249907,7.565214,-0.12013797,-0.490716,-0.048250277,-86.80058,-72.46132,-14.401273
6.85938E+12,2.7493117,7.249907,7.565214,-0.12013797,-0.490716,-0.048250277,-85.98725,-72.770485,-14.064872
6.85938E+12,2.7493117,7.249907,7.565214,0.16217926,-0.5541042,-0.16650394,-85.98725,-72.770485,-14.064872
6.8594E+12,2.7493117,7.249907,7.565214,-0.22614011,-0.49178132,-0.25439513,-85.98725,-72.770485,-14.064872
6.8594E+12,2.7493117,7.249907,7.565214,-0.22614011,-0.49178132,-0.25439513,-86.61684,-72.039856,-13.504515
6.8594E+12,2.907387,8.23189,6.573651,-0.22614011,-0.49178132,-0.25439513,-86.61684,-72.039856,-13.504515
6.85942E+12,2.907387,8.23189,6.573651,-1.0331413,-0.2009413,-0.36892006,-86.61684,-72.039856,-13.504515
6.85942E+12,2.907387,8.23189,6.573651,-1.0331413,-0.2009413,-0.36892006,-86.96212,-72.33354,-13.194626
6.85942E+12,4.1504335,8.639052,8.058601,-1.0331413,-0.2009413,-0.36892006,-86.96212,-72.33354,-13.194626
6.85944E+12,4.1504335,8.639052,8.058601,-1.0331413,-0.2009413,-0.36892006,-85.92472,-71.46824,-15.6437
6.85944E+12,4.1504335,8.639052,8.058601,-1.3154584,-0.17537294,-0.7551087,-85.92472,-71.46824,-15.6437
6.85944E+12,3.7552452,7.597194,9.821381,-1.3154584,-0.17537294,-0.7551087,-85.92472,-71.46824,-15.6437
6.85946E+12,3.7552452,7.597194,9.821381,-1.3154584,-0.17537294,-0.7551087,-88.91531,-71.61822,-14.03119
6.85946E+12,2.7900283,6.1649365,9.656119,-1.3154584,-0.17537294,-0.7551087,-88.91531,-71.61822,-14.03119
6.85946E+12,2.7900283,6.1649365,9.656119,-1.0267493,-0.4156089,-1.1482223,-88.91531,-71.61822,-14.03119
6.85948E+12,2.0547388,4.708727,9.349549,-1.0267493,-0.4156089,-1.1482223,-88.91531,-71.61822,-14.03119
6.85948E+12,2.0547388,4.708727,9.349549,-1.0267493,-0.4156089,-1.1482223,-86.76963,-71.807045,-14.886806
6.85948E+12,2.0547388,4.708727,9.349549,-0.9841353,-0.4390466,-1.3362561,-86.76963,-71.807045,-14.886806
6.8595E+12,2.3062222,3.3411365,10.3459015,-0.9841353,-0.4390466,-1.3362561,-86.76963,-71.807045,-14.886806
6.8595E+12,2.3062222,3.3411365,10.3459015,-0.9841353,-0.4390466,-1.3362561,-85.46307,-72.19974,-14.687586
6.85951E+12,2.3062222,3.3411365,10.3459015,-1.1583197,-0.38577917,-1.3863275,-85.46307,-72.19974,-14.687586
6.85952E+12,2.2080238,3.1686907,12.899057,-1.1583197,-0.38577917,-1.3863275,-85.46307,-72.19974,-14.687586
6.85952E+12,2.2080238,3.1686907,12.899057,-1.1583197,-0.38577917,-1.3863275,-83.83046,-72.68469,-13.868784
6.85953E+12,2.2080238,3.1686907,12.899057,-0.98946196,-0.63720137,-1.4433235,-83.83046,-72.68469,-13.868784
6.85954E+12,2.2080238,3.1686907,12.899057,-0.98946196,-0.63720137,-1.4433235,-83.76917,-71.36985,-14.232083
6.85955E+12,2.2080238,3.1686907,12.899057,-0.43707904,-0.66063905,-1.5008523,-83.76917,-71.36985,-14.232083
6.85954E+12,1.7481685,3.74351,11.941026,-0.43707904,-0.66063905,-1.5008523,-83.76917,-71.36985,-14.232083
6.85957E+12,1.7481685,3.74351,11.941026,-0.07006661,-0.5865974,-1.5221592,-83.76917,-71.36985,-14.232083
6.85956E+12,1.7481685,3.74351,11.941026,-0.07006661,-0.5865974,-1.5221592,-85.45165,-71.92826,-13.939765
6.85956E+12,1.4272277,4.311144,9.150757,-0.07006661,-0.5865974,-1.5221592,-85.45165,-71.92826,-13.939765
6.85959E+12,1.4272277,4.311144,9.150757,-0.07272998,-0.74853027,-1.5035157,-85.45165,-71.92826,-13.939765
6.85958E+12,1.2140657,5.2524104,8.647791,-0.07272998,-0.74853027,-1.5035157,-85.45165,-71.92826,-13.939765
6.85958E+12,1.2140657,5.2524104,8.647791,-0.07272998,-0.74853027,-1.5035157,-83.68986,-73.1811,-12.474609
6.8596E+12,1.0943116,5.9158473,8.659766,-0.07272998,-0.74853027,-1.5035157,-83.68986,-73.1811,-12.474609
6.8596E+12,1.0943116,5.9158473,8.659766,-0.07272998,-0.74853027,-1.5035157,-82.91201,-74.29208,-13.166144
6.85961E+12,1.0943116,5.9158473,8.659766,-0.1606212,-0.8587938,-1.5003197,-82.91201,-74.29208,-13.166144
6.85962E+12,1.1877198,6.318221,8.075367,-0.1606212,-0.8587938,-1.5003197,-82.91201,-74.29208,-13.166144
6.85963E+12,1.1877198,6.318221,8.075367,-0.22720547,-0.9125939,-1.5125713,-82.91201,-74.29208,-13.166144
6.85962E+12,1.1877198,6.318221,8.075367,-0.22720547,-0.9125939,-1.5125713,-83.13422,-75.485435,-12.203961
6.85965E+12,1.1877198,6.318221,8.075367,-0.39766115,-0.9216493,-1.5791554,-83.13422,-75.485435,-12.203961
6.85964E+12,1.1877198,6.318221,8.075367,-0.39766115,-0.9216493,-1.5791554,-81.29847,-75.16456,-11.569812
6.85964E+12,1.1326329,6.6942487,9.256141,-0.39766115,-0.9216493,-1.5791554,-81.29847,-75.16456,-11.569812
6.85967E+12,1.1326329,6.6942487,9.256141,-0.22773813,-1.1256635,-1.7325655,-81.29847,-75.16456,-11.569812
6.85966E+12,1.1326329,6.6942487,9.256141,-0.22773813,-1.1256635,-1.7325655,-81.212296,-76.85188,-10.577985
6.85966E+12,1.5374014,6.979263,10.894376,-0.22773813,-1.1256635,-1.7325655,-81.212296,-76.85188,-10.577985
6.85969E+12,1.5374014,6.979263,10.894376,0.20106448,-1.2630934,-1.9371126,-81.212296,-76.85188,-10.577985
6.85968E+12,1.5374014,6.979263,10.894376,0.20106448,-1.2630934,-1.9371126,-81.039955,-76.7019,-10.429047
6.85968E+12,-0.12478404,6.301456,10.966228,0.20106448,-1.2630934,-1.9371126,-81.039955,-76.7019,-10.429047
6.8597E+12,-0.74989986,6.2391834,9.167522,0.20106448,-1.2630934,-1.9371126,-81.039955,-76.7019,-10.429047
6.8597E+12,-0.74989986,6.2391834,9.167522,0.20106448,-1.2630934,-1.9371126,-79.56826,-77.06536,-9.011362
6.85971E+12,-0.74989986,6.2391834,9.167522,0.38909844,-1.0425663,-1.8188587,-79.56826,-77.06536,-9.011362
6.85973E+12,-0.74989986,6.2391834,9.167522,0.1515258,-0.8113858,-1.6004624,-79.56826,-77.06536,-9.011362
6.85972E+12,0.74463004,6.58168,9.375895,0.1515258,-0.8113858,-1.6004624,-79.56826,-77.06536,-9.011362
6.85972E+12,0.74463004,6.58168,9.375895,0.1515258,-0.8113858,-1.6004624,-78.97148,-78.43137,-7.2628965
6.85974E+12,0.74463004,6.58168,9.375895,0.1515258,-0.8113858,-1.6004624,-78.64935,-78.67749,-8.7645445
6.85975E+12,0.74463004,6.58168,9.375895,0.23568828,-1.0771902,-1.7027358,-78.64935,-78.67749,-8.7645445
6.85974E+12,1.4918948,6.43079,11.993717,0.23568828,-1.0771902,-1.7027358,-78.64935,-78.67749,-8.7645445
6.85976E+12,1.4918948,6.43079,11.993717,0.23568828,-1.0771902,-1.7027358,-77.98051,-78.450874,-6.0237947
6.85976E+12,0.22489762,5.7889085,12.036829,0.23568828,-1.0771902,-1.7027358,-77.98051,-78.450874,-6.0237947
6.85977E+12,0.22489762,5.7889085,12.036829,0.8306852,-1.2796062,-1.9078153,-77.98051,-78.450874,-6.0237947
6.85978E+12,0.22489762,5.7889085,12.036829,0.8306852,-1.2796062,-1.9078153,-77.98051,-78.450874,-6.0237947
6.85979E+12,0.22489762,5.7889085,12.036829,1.3138205,-1.2268716,-1.7916924,-77.98051,-78.450874,-6.0237947
6.85978E+12,-0.13675943,6.2296033,9.038189,1.3138205,-1.2268716,-1.7916924,-77.98051,-78.450874,-6.0237947
6.8598E+12,0.385368,6.3493567,6.9137526,1.3138205,-1.2268716,-1.7916924,-77.98051,-78.450874,-6.0237947
6.85981E+12,0.385368,6.3493567,6.9137526,1.0299052,-0.93336815,-1.5312148,-77.98051,-78.450874,-6.0237947
6.8598E+12,0.385368,6.3493567,6.9137526,1.0299052,-0.93336815,-1.5312148,-76.27844,-81.0343,-5.714749
6.85982E+12,0.385368,6.3493567,6.9137526,1.0299052,-0.93336815,-1.5312148,-73.61107,-80.62718,-4.7620244
6.85982E+12,0.14825508,5.865551,8.140034,1.0299052,-0.93336815,-1.5312148,-73.61107,-80.62718,-4.7620244
6.85983E+12,0.14825508,5.865551,8.140034,0.4556827,-0.7607817,-1.3628899,-73.61107,-80.62718,-4.7620244
6.85984E+12,0.14825508,5.865551,8.140034,0.4556827,-0.7607817,-1.3628899,-71.62863,-80.670906,-2.7396426
6.85985E+12,0.14825508,5.865551,8.140034,0.36672613,-0.8023304,-1.1966957,-71.62863,-80.670906,-2.7396426
6.85984E+12,0.53865314,6.2822948,9.883652,0.36672613,-0.8023304,-1.1966957,-71.62863,-80.670906,-2.7396426
6.85986E+12,0.53865314,6.2822948,9.883652,0.36672613,-0.8023304,-1.1966957,-70.76418,-79.949295,-4.7298894
6.85987E+12,0.53865314,6.2822948,9.883652,0.6048314,-0.75598776,-1.0672557,-70.76418,-79.949295,-4.7298894
6.85986E+12,0.29435495,6.14338,7.8622036,0.6048314,-0.75598776,-1.0672557,-70.76418,-79.949295,-4.7298894
6.85988E+12,0.29435495,6.14338,7.8622036,0.6048314,-0.75598776,-1.0672557,-73.118935,-80.69969,-3.8356204
6.85989E+12,0.29435495,6.14338,7.8622036,0.3864351,-0.6526489,-0.84939206,-73.118935,-80.69969,-3.8356204
6.85988E+12,-0.105623394,6.0068607,6.4491067,0.3864351,-0.6526489,-0.84939206,-73.118935,-80.69969,-3.8356204
6.8599E+12,0.030896157,6.1385903,6.822739,0.3864351,-0.6526489,-0.84939206,-73.118935,-80.69969,-3.8356204
6.85991E+12,0.030896157,6.1385903,6.822739,-0.19151631,-0.39643264,-0.56441146,-73.118935,-80.69969,-3.8356204
6.8599E+12,0.030896157,6.1385903,6.822739,-0.19151631,-0.39643264,-0.56441146,-72.65025,-81.30884,-3.7970948
6.85992E+12,0.030896157,6.1385903,6.822739,-0.19151631,-0.39643264,-0.56441146,-74.81113,-81.5469,-5.962473
6.85992E+12,1.4679441,6.30385,8.7555685,-0.19151631,-0.39643264,-0.56441146,-74.81113,-81.5469,-5.962473
6.85993E+12,1.4679441,6.30385,8.7555685,-0.5244376,-0.38151783,-0.47066084,-74.81113,-81.5469,-5.962473
6.85994E+12,1.4679441,6.30385,8.7555685,-0.5244376,-0.38151783,-0.47066084,-72.23682,-79.57637,-5.2359285
6.85995E+12,1.4679441,6.30385,8.7555685,-0.15795784,-0.9040711,-0.7172889,-72.23682,-79.57637,-5.2359285
6.85994E+12,1.2475967,6.3709126,11.636851,-0.15795784,-0.9040711,-0.7172889,-72.23682,-79.57637,-5.2359285
6.85996E+12,1.2475967,6.3709126,11.636851,-0.15795784,-0.9040711,-0.7172889,-72.588974,-79.99399,-4.160394
6.85996E+12,0.01892076,6.071528,10.808153,-0.15795784,-0.9040711,-0.7172889,-72.588974,-79.99399,-4.160394
6.85997E+12,0.01892076,6.071528,10.808153,0.549966,-1.1416438,-0.8307485,-72.588974,-79.99399,-4.160394
6.85998E+12,0.01892076,6.071528,10.808153,0.549966,-1.1416438,-0.8307485,-69.85418,-81.66487,-1.7421937
6.85998E+12,1.3457952,6.6631126,7.622696,0.549966,-1.1416438,-0.8307485,-69.85418,-81.66487,-1.7421937
6.85999E+12,1.3457952,6.6631126,7.622696,0.64265126,-0.6478549,-0.64431256,-69.85418,-81.66487,-1.7421937
6.86E+12,1.3457952,6.6631126,7.622696,0.64265126,-0.6478549,-0.64431256,-70.84,-81.50412,-2.0755923
6.86E+12,1.0799412,5.7457967,6.7245417,0.64265126,-0.6478549,-0.64431256,-70.84,-81.50412,-2.0755923
6.86001E+12,1.0799412,5.7457967,6.7245417,-0.01307049,-0.131161,-0.6373878,-70.84,-81.50412,-2.0755923
6.86002E+12,1.0799412,5.7457967,6.7245417,-0.01307049,-0.131161,-0.6373878,-70.47533,-80.826065,-3.4668918
6.86003E+12,1.0799412,5.7457967,6.7245417,-0.5132514,-0.26646018,-0.64591056,-70.47533,-80.826065,-3.4668918
6.86002E+12,1.5158458,4.7518387,11.557813,-0.5132514,-0.26646018,-0.64591056,-70.47533,-80.826065,-3.4668918
6.86004E+12,1.5158458,4.7518387,11.557813,-0.5132514,-0.26646018,-0.64591056,-70.0051,-81.45096,-4.9477754
6.86005E+12,1.5158458,4.7518387,11.557813,-0.12013797,-0.38418114,-0.8195624,-70.0051,-81.45096,-4.9477754
6.86004E+12,2.6582987,4.5554423,13.567286,-0.12013797,-0.38418114,-0.8195624,-70.0051,-81.45096,-4.9477754
6.86006E+12,2.6582987,4.5554423,13.567286,-0.12013797,-0.38418114,-0.8195624,-69.327034,-81.12404,-5.2517858
6.86006E+12,0.2871697,3.5566938,12.276338,-0.12013797,-0.38418114,-0.8195624,-69.327034,-81.12404,-5.2517858
6.86007E+12,0.2871697,3.5566938,12.276338,0.2969458,-0.002253879,-1.115729,-69.327034,-81.12404,-5.2517858
6.86008E+12,0.2871697,3.5566938,12.276338,0.2969458,-0.002253879,-1.115729,-69.64292,-80.7477,-3.90802
6.86008E+12,-0.65409666,3.9255362,10.87282,0.2969458,-0.002253879,-1.115729,-69.64292,-80.7477,-3.90802
6.86009E+12,-0.65409666,3.9255362,10.87282,0.2745735,0.545335,-0.8781565,-69.64292,-80.7477,-3.90802
6.8601E+12,-0.65409666,3.9255362,10.87282,0.2745735,0.545335,-0.8781565,-68.716835,-82.239044,-4.730731
6.8601E+12,1.523031,4.943445,9.5435505,0.2745735,0.545335,-0.8781565,-68.716835,-82.239044,-4.730731
6.86011E+12,1.523031,4.943445,9.5435505,0.13181685,0.79143035,-0.49889255,-68.716835,-82.239044,-4.730731
6.86012E+12,1.523031,4.943445,9.5435505,0.13181685,0.79143035,-0.49889255,-67.83456,-81.1173,-6.282981
6.86012E+12,1.585303,4.725493,10.870424,0.13181685,0.79143035,-0.49889255,-67.83456,-81.1173,-6.282981
6.86013E+12,1.585303,4.725493,10.870424,-0.01307049,0.76373136,-0.6395185,-67.83456,-81.1173,-6.282981
6.86014E+12,1.585303,4.725493,10.870424,-0.01307049,0.76373136,-0.6395185,-67.25607,-82.87871,-4.5166907
6.86014E+12,-0.50560176,3.865659,11.842828,-0.01307049,0.76373136,-0.6395185,-67.25607,-82.87871,-4.5166907
6.86015E+12,-0.50560176,3.865659,11.842828,0.29215175,0.5565211,-0.9079862,-67.25607,-82.87871,-4.5166907
6.86016E+12,-0.50560176,3.865659,11.842828,0.29215175,0.5565211,-0.9079862,-64.192314,-81.14714,-6.200501
6.86016E+12,-1.7869695,4.0405,11.045266,0.29215175,0.5565211,-0.9079862,-64.192314,-81.14714,-6.200501
6.86017E+12,-1.7869695,4.0405,11.045266,0.90898824,0.30616438,-0.76576215,-64.192314,-81.14714,-6.200501
6.86018E+12,-1.7869695,4.0405,11.045266,0.90898824,0.30616438,-0.76576215,-66.775055,-83.22583,-4.641989
6.86018E+12,-0.94629645,4.553047,7.8789697,0.90898824,0.30616438,-0.76576215,-66.775055,-83.22583,-4.641989
6.86019E+12,-0.94629645,4.553047,7.8789697,1.3010365,0.29923967,-0.38010624,-66.775055,-83.22583,-4.641989
6.8602E+12,-0.94629645,4.553047,7.8789697,1.3010365,0.29923967,-0.38010624,-66.853546,-84.94709,-5.324451
6.8602E+12,0.67038256,4.5434666,5.373716,1.3010365,0.29923967,-0.38010624,-66.853546,-84.94709,-5.324451
6.86021E+12,0.67038256,4.5434666,5.373716,1.0054023,0.39085957,-0.17076531,-66.853546,-84.94709,-5.324451
6.86022E+12,0.67038256,4.5434666,5.373716,1.0054023,0.39085957,-0.17076531,-66.74643,-82.54794,-2.8484073
6.86023E+12,0.67038256,4.5434666,5.373716,0.22077341,0.46170524,-0.25812384,-66.74643,-82.54794,-2.8484073
6.86022E+12,0.23926812,4.1722293,7.505337,0.22077341,0.46170524,-0.25812384,-66.74643,-82.54794,-2.8484073
6.86024E+12,0.23926812,4.1722293,7.505337,0.22077341,0.46170524,-0.25812384,-65.75828,-82.73231,-4.7941227
6.86025E+12,0.23926812,4.1722293,7.505337,-0.05089035,0.49899244,-0.2842249,-65.75828,-82.73231,-4.7941227
6.86024E+12,-1.9234892,3.6165707,11.006944,-0.05089035,0.49899244,-0.2842249,-65.75828,-82.73231,-4.7941227
6.86026E+12,-1.9234892,3.6165707,11.006944,-0.05089035,0.49899244,-0.2842249,-64.458435,-83.250496,-3.9811983
6.86026E+12,-1.528301,3.9375114,10.89198,-0.05089035,0.49899244,-0.2842249,-64.458435,-83.250496,-3.9811983
6.86027E+12,-1.528301,3.9375114,10.89198,0.5872532,0.42015666,0.055088487,-64.458435,-83.250496,-3.9811983
6.86028E+12,-1.528301,3.9375114,10.89198,0.5872532,0.42015666,0.055088487,-65.81315,-83.91851,-4.7406464
6.86028E+12,1.3697459,5.187743,7.277805,0.5872532,0.42015666,0.055088487,-65.81315,-83.91851,-4.7406464
6.86029E+12,1.3697459,5.187743,7.277805,1.3021017,0.34078822,0.2537759,-65.81315,-83.91851,-4.7406464
6.8603E+12,1.3697459,5.187743,7.277805,1.3021017,0.34078822,0.2537759,-64.79855,-83.40293,-2.765607
6.8603E+12,0.7901365,5.350609,4.9569716,1.3021017,0.34078822,0.2537759,-64.79855,-83.40293,-2.765607
6.86031E+12,0.7901365,5.350609,4.9569716,1.385199,0.13730672,-0.03546611,-64.79855,-83.40293,-2.765607
6.86032E+12,0.7901365,5.350609,4.9569716,1.385199,0.13730672,-0.03546611,-64.841705,-84.3208,-2.2681916
6.86032E+12,-2.2013185,4.344675,5.567717,1.385199,0.13730672,-0.03546611,-64.841705,-84.3208,-2.2681916
6.86033E+12,-2.2013185,4.344675,5.567717,0.89567137,0.11653243,-0.11803058,-64.841705,-84.3208,-2.2681916
6.86034E+12,-2.2013185,4.344675,5.567717,0.89567137,0.11653243,-0.11803058,-64.87375,-84.96405,-0.7190735
6.86034E+12,-3.6695023,2.8645155,6.6023917,0.89567137,0.11653243,-0.11803058,-64.87375,-84.96405,-0.7190735
6.86035E+12,-3.6695023,2.8645155,6.6023917,0.33955976,0.5149727,0.47536832,-64.87375,-84.96405,-0.7190735
6.86036E+12,-3.6695023,2.8645155,6.6023917,0.33955976,0.5149727,0.47536832,-64.37303,-84.92995,-2.2296662
6.86036E+12,2.7301514,5.3673744,6.662269,0.33955976,0.5149727,0.47536832,-64.37303,-84.92995,-2.2296662
6.86037E+12,2.7301514,5.3673744,6.662269,0.11210791,0.87985426,1.2131218,-64.37303,-84.92995,-2.2296662
6.86038E+12,2.7301514,5.3673744,6.662269,0.11210791,0.87985426,1.2131218,-66.19735,-84.97936,-2.1159942
6.86038E+12,4.64861,6.459531,6.2503147,0.11210791,0.87985426,1.2131218,-66.19735,-84.97936,-2.1159942
6.86039E+12,4.64861,6.459531,6.2503147,0.45941144,0.4260161,0.70654887,-66.19735,-84.97936,-2.1159942
6.8604E+12,4.64861,6.459531,6.2503147,0.45941144,0.4260161,0.70654887,-66.24035,-85.89881,-1.7705201
6.86041E+12,4.64861,6.459531,6.2503147,1.0032716,-0.52320915,-0.11323652,-66.24035,-85.89881,-1.7705201
6.8604E+12,0.4428499,4.7159123,7.067037,1.0032716,-0.52320915,-0.11323652,-66.24035,-85.89881,-1.7705201
6.86042E+12,0.4428499,4.7159123,7.067037,1.0032716,-0.52320915,-0.11323652,-67.191605,-84.92679,-0.1643373
6.86042E+12,-3.6311812,2.931578,5.982066,1.0032716,-0.52320915,-0.11323652,-67.191605,-84.92679,-0.1643373
6.86043E+12,-3.6311812,2.931578,5.982066,1.0735846,-0.5311992,0.014072582,-67.191605,-84.92679,-0.1643373
6.86044E+12,-3.6311812,2.931578,5.982066,1.0735846,-0.5311992,0.014072582,-67.191605,-84.92679,-0.1643373
6.86045E+12,-3.6311812,2.931578,5.982066,0.43117967,0.46543396,1.1076524,-67.191605,-84.92679,-0.1643373
6.86044E+12,-0.94150627,2.6753044,6.0730796,0.43117967,0.46543396,1.1076524,-67.191605,-84.92679,-0.1643373
6.86046E+12,-0.94150627,2.6753044,6.0730796,0.43117967,0.46543396,1.1076524,-68.70615,-85.484344,-1.3884888
6.86046E+12,5.0893044,5.149422,5.6395698,0.43117967,0.46543396,1.1076524,-68.70615,-85.484344,-1.3884888
6.86047E+12,5.0893044,5.149422,5.6395698,0.008236472,1.0577674,1.6882671,-68.70615,-85.484344,-1.3884888
6.86048E+12,5.0893044,5.149422,5.6395698,0.008236472,1.0577674,1.6882671,-70.51905,-85.262276,-0.52699596
6.86049E+12,5.0893044,5.149422,5.6395698,0.13128418,0.48620823,0.9419908,-70.51905,-85.262276,-0.52699596
6.86048E+12,4.2127056,5.3745594,5.230011,0.13128418,0.48620823,0.9419908,-70.51905,-85.262276,-0.52699596
6.8605E+12,4.2127056,5.3745594,5.230011,0.13128418,0.48620823,0.9419908,-70.862946,-85.57013,-1.5845764
6.8605E+12,2.3062222,4.315934,5.9916463,0.13128418,0.48620823,0.9419908,-70.862946,-85.57013,-1.5845764
6.86051E+12,2.3062222,4.315934,5.9916463,0.11743466,-0.12796496,0.2974552,-70.862946,-85.57013,-1.5845764
6.86052E+12,2.3062222,4.315934,5.9916463,0.11743466,-0.12796496,0.2974552,-70.22271,-86.021416,-0.6374085
6.86052E+12,1.6667358,3.7506955,8.135243,0.11743466,-0.12796496,0.2974552,-70.22271,-86.021416,-0.6374085
6.86053E+12,1.6667358,3.7506955,8.135243,-0.14251028,-0.038475715,0.19731247,-70.22271,-86.021416,-0.6374085
6.86054E+12,1.6667358,3.7506955,8.135243,-0.14251028,-0.038475715,0.19731247,-70.14345,-84.30803,-0.71465135
6.86055E+12,1.6667358,3.7506955,8.135243,-0.24425103,0.47129336,0.34326515,-70.14345,-84.30803,-0.71465135
6.86054E+12,1.3673508,3.8680542,7.998723,-0.24425103,0.47129336,0.34326515,-70.14345,-84.30803,-0.71465135
6.86056E+12,1.3673508,3.8680542,7.998723,-0.24425103,0.47129336,0.34326515,-71.329285,-84.984604,-3.9022155
6.86056E+12,2.811584,4.9051237,7.7903514,-0.24425103,0.47129336,0.34326515,-71.329285,-84.984604,-3.9022155
6.86057E+12,2.811584,4.9051237,7.7903514,-0.21868268,0.6816996,0.46205145,-71.329285,-84.984604,-3.9022155
6.86058E+12,2.811584,4.9051237,7.7903514,-0.21868268,0.6816996,0.46205145,-70.01833,-85.22817,-2.0375888
6.86058E+12,2.8546956,5.1182857,7.529288,-0.21868268,0.6816996,0.46205145,-70.01833,-85.22817,-2.0375888
6.86059E+12,2.8546956,5.1182857,7.529288,-0.010939794,0.4952637,0.19251838,-70.01833,-85.22817,-2.0375888
6.8606E+12,2.8546956,5.1182857,7.529288,-0.010939794,0.4952637,0.19251838,-70.85027,-85.31126,-2.052283
6.86061E+12,2.8546956,5.1182857,7.529288,0.063101895,0.48993692,-0.05038098,-70.85027,-85.31126,-2.052283
6.8606E+12,0.9482118,4.4428735,7.2251124,0.063101895,0.48993692,-0.05038098,-70.85027,-85.31126,-2.052283
6.86062E+12,0.9482118,4.4428735,7.2251124,0.063101895,0.48993692,-0.05038098,-70.86481,-85.55124,0.23871465
6.86062E+12,1.2116705,4.663221,7.6658077,0.063101895,0.48993692,-0.05038098,-70.86481,-85.55124,0.23871465
6.86063E+12,1.2116705,4.663221,7.6658077,0.015693909,0.592743,0.21169464,-70.86481,-85.55124,0.23871465
6.86064E+12,1.2116705,4.663221,7.6658077,0.015693909,0.592743,0.21169464,-69.16733,-84.75757,-2.8004243
6.86065E+12,1.2116705,4.663221,7.6658077,0.20426053,0.566642,0.45938808,-69.16733,-84.75757,-2.8004243
6.86064E+12,3.4127493,6.014046,6.834715,0.20426053,0.566642,0.45938808,-69.16733,-84.75757,-2.8004243
6.86066E+12,3.4127493,6.014046,6.834715,0.20426053,0.566642,0.45938808,-69.63725,-84.13582,-1.6234221
6.86066E+12,2.7588923,6.845139,5.3090487,0.20426053,0.566642,0.45938808,-69.63725,-84.13582,-1.6234221
6.86067E+12,2.7588923,6.845139,5.3090487,0.48071834,0.3413209,0.25910264,-69.63725,-84.13582,-1.6234221
6.86068E+12,2.7588923,6.845139,5.3090487,0.48071834,0.3413209,0.25910264,-70.88123,-85.96552,-1.5667512
6.86068E+12,0.71828413,6.1050587,4.746205,0.48071834,0.3413209,0.25910264,-70.88123,-85.96552,-1.5667512
6.86069E+12,0.71828413,6.1050587,4.746205,0.5142768,0.098421514,0.18932235,-70.88123,-85.96552,-1.5667512
6.8607E+12,0.71828413,6.1050587,4.746205,0.5142768,0.098421514,0.18932235,-71.3513,-85.34221,-0.23780838
6.86071E+12,0.71828413,6.1050587,4.746205,0.29428247,0.09788884,0.6378339,-71.3513,-85.34221,-0.23780838
6.8607E+12,1.0320396,5.9996758,5.1701336,0.29428247,0.09788884,0.6378339,-71.3513,-85.34221,-0.23780838
6.86072E+12,1.0320396,5.9996758,5.1701336,0.29428247,0.09788884,0.6378339,-71.50457,-85.10468,-1.164276
6.86072E+12,3.2786245,7.233142,5.5461617,0.29428247,0.09788884,0.6378339,-71.50457,-85.10468,-1.164276
6.86073E+12,3.2786245,7.233142,5.5461617,-0.108951814,0.49739438,1.1236327,-71.50457,-85.10468,-1.164276
6.86074E+12,3.2786245,7.233142,5.5461617,-0.108951814,0.49739438,1.1236327,-71.83813,-85.13004,-0.41044912
6.86075E+12,3.2786245,7.233142,5.5461617,-0.39766115,0.85375327,1.0927374,-71.83813,-85.13004,-0.41044912
6.86074E+12,5.256961,8.435472,6.736516,-0.39766115,0.85375327,1.0927374,-71.83813,-85.13004,-0.41044912
6.86076E+12,5.256961,8.435472,6.736516,-0.39766115,0.85375327,1.0927374,-72.52557,-85.7489,-2.8294923
6.86076E+12,4.4785595,8.116925,6.9664435,-0.39766115,0.85375327,1.0927374,-72.52557,-85.7489,-2.8294923
6.86077E+12,4.4785595,8.116925,6.9664435,-0.14410831,0.7109966,0.6538141,-72.52557,-85.7489,-2.8294923
6.86078E+12,4.4785595,8.116925,6.9664435,-0.14410831,0.7109966,0.6538141,-72.43489,-83.76404,-2.1589143
6.86079E+12,4.4785595,8.116925,6.9664435,0.22823085,0.43453884,0.43967915,-72.43489,-83.76404,-2.1589143
6.86078E+12,3.6067507,7.9396896,5.1916895,0.22823085,0.43453884,0.43967915,-72.43489,-83.76404,-2.1589143
6.8608E+12,3.6067507,7.9396896,5.1916895,0.22823085,0.43453884,0.43967915,-74.4625,-84.61771,-1.7086487
6.8608E+12,3.055882,7.8007755,4.147435,0.22823085,0.43453884,0.43967915,-74.4625,-84.61771,-1.7086487
6.86081E+12,3.055882,7.8007755,4.147435,0.19254169,0.3940556,0.42529693,-74.4625,-84.61771,-1.7086487
6.86082E+12,3.055882,7.8007755,4.147435,0.19254169,0.3940556,0.42529693,-75.02139,-85.99815,-2.873575
6.86083E+12,3.055882,7.8007755,4.147435,-0.029583385,0.36049718,0.45299602,-75.02139,-85.99815,-2.873575
6.86082E+12,2.938523,7.683417,4.5665736,-0.029583385,0.36049718,0.45299602,-75.02139,-85.99815,-2.873575
6.86084E+12,2.938523,7.683417,4.5665736,-0.029583385,0.36049718,0.45299602,-75.26504,-84.03078,-0.68946534
6.86085E+12,2.938523,7.683417,4.5665736,-0.10575578,0.15488495,0.4386138,-75.26504,-84.03078,-0.68946534
6.86084E+12,3.6522572,8.160037,5.5198154,-0.10575578,0.15488495,0.4386138,-75.26504,-84.03078,-0.68946534
6.86086E+12,3.6522572,8.160037,5.5198154,-0.10575578,0.15488495,0.4386138,-76.144196,-85.184,-2.176035
6.86086E+12,3.4247246,8.155247,6.1401415,-0.10575578,0.15488495,0.4386138,-76.144196,-85.184,-2.176035
6.86087E+12,3.4247246,8.155247,6.1401415,-0.06473988,-0.00917864,0.31077203,-76.144196,-85.184,-2.176035
6.86088E+12,3.4247246,8.155247,6.1401415,-0.06473988,-0.00917864,0.31077203,-75.44191,-84.32831,-2.3518708
6.86089E+12,3.4247246,8.155247,6.1401415,-0.11640925,0.1687345,0.2532432,-75.44191,-84.32831,-2.3518708
6.86088E+12,3.0702527,7.7744293,6.6383176,-0.11640925,0.1687345,0.2532432,-75.44191,-84.32831,-2.3518708
6.8609E+12,3.0702527,7.7744293,6.6383176,-0.11640925,0.1687345,0.2532432,-75.45332,-84.599785,-3.0996916
6.8609E+12,2.7157807,7.6427,6.6502934,-0.11640925,0.1687345,0.2532432,-75.45332,-84.599785,-3.0996916
6.86091E+12,2.7157807,7.6427,6.6502934,-0.089775555,0.36049718,0.2457858,-75.45332,-84.599785,-3.0996916
6.86092E+12,2.7157807,7.6427,6.6502934,-0.089775555,0.36049718,0.2457858,-74.11628,-84.33347,-2.9301822
6.86092E+12,2.4475317,7.549292,6.231155,-0.089775555,0.36049718,0.2457858,-74.11628,-84.33347,-2.9301822
6.86093E+12,2.4475317,7.549292,6.231155,0.12276139,0.23958014,0.23832835,-74.11628,-84.33347,-2.9301822
6.86094E+12,2.4475317,7.549292,6.231155,0.12276139,0.23958014,0.23832835,-75.16323,-85.48915,-3.0522215
6.86095E+12,2.4475317,7.549292,6.231155,0.25007048,0.05580759,0.25271055,-75.16323,-85.48915,-3.0522215
6.86094E+12,2.8786461,7.9205294,6.0898447,0.25007048,0.05580759,0.25271055,-75.16323,-85.48915,-3.0522215
6.86096E+12,2.8786461,7.9205294,6.0898447,0.25007048,0.05580759,0.25271055,-76.459465,-84.813965,-1.440033
6.86096E+12,3.5133424,8.188778,6.3868346,0.25007048,0.05580759,0.25271055,-76.459465,-84.813965,-1.440033
6.86097E+12,3.5133424,8.188778,6.3868346,0.18614961,0.12771858,0.17813618,-76.459465,-84.813965,-1.440033
6.86098E+12,3.5133424,8.188778,6.3868346,0.18614961,0.12771858,0.17813618,-75.10944,-84.29192,-2.0421114
6.86098E+12,2.5768661,7.815146,6.135351,0.18614961,0.12771858,0.17813618,-75.10944,-84.29192,-2.0421114
6.86099E+12,2.5768661,7.815146,6.135351,0.13927428,0.23372072,0.007147819,-75.10944,-84.29192,-2.0421114
6.861E+12,2.5768661,7.815146,6.135351,0.13927428,0.23372072,0.007147819,-75.153366,-85.20193,-0.78499126
6.861E+12,1.2068803,7.2187715,5.6994467,0.13927428,0.23372072,0.007147819,-75.153366,-85.20193,-0.78499126
6.86101E+12,1.2068803,7.2187715,5.6994467,0.11104257,0.17672461,0.009278516,-75.153366,-85.20193,-0.78499126
6.86102E+12,1.2068803,7.2187715,5.6994467,0.11104257,0.17672461,0.009278516,-77.18051,-86.060326,-0.79054856
6.86102E+12,1.3984867,7.2355366,6.099425,0.11104257,0.17672461,0.009278516,-77.18051,-86.060326,-0.79054856
6.86103E+12,1.3984867,7.2355366,6.099425,0.022085996,0.14476416,0.20530257,-77.18051,-86.060326,-0.79054856
6.86104E+12,1.3984867,7.2355366,6.099425,0.022085996,0.14476416,0.20530257,-75.44082,-84.33933,-3.4154575
6.86104E+12,1.671526,7.374451,6.456292,0.022085996,0.14476416,0.20530257,-75.44082,-84.33933,-3.4154575
6.86105E+12,1.671526,7.374451,6.456292,7.79E-04,0.18151866,0.3421998,-75.44082,-84.33933,-3.4154575
6.86106E+12,1.671526,7.374451,6.456292,7.79E-04,0.18151866,0.3421998,-75.9109,-83.71601,-2.0865145
6.86107E+12,1.671526,7.374451,6.456292,0.11104257,0.08190861,0.3773563,-75.9109,-83.71601,-2.0865145
6.86106E+12,2.7541022,7.910949,6.4898233,0.11104257,0.08190861,0.3773563,-75.9109,-83.71601,-2.0865145
6.86108E+12,2.7541022,7.910949,6.4898233,0.11104257,0.08190861,0.3773563,-75.9109,-83.71601,-2.0865145
6.86108E+12,3.113364,8.263026,5.996437,0.11104257,0.08190861,0.3773563,-75.9109,-83.71601,-2.0865145
6.86109E+12,3.113364,8.263026,5.996437,0.21970807,-0.13169368,0.20476988,-75.9109,-83.71601,-2.0865145
6.8611E+12,3.113364,8.263026,5.996437,0.21970807,-0.13169368,0.20476988,-77.88926,-83.52002,-2.1396058
6.8611E+12,2.124196,7.7576637,6.0730796,0.21970807,-0.13169368,0.20476988,-77.88926,-83.52002,-2.1396058
6.86111E+12,2.124196,7.7576637,6.0730796,0.11583663,-0.14820656,-0.011495771,-77.88926,-83.52002,-2.1396058
6.86112E+12,2.124196,7.7576637,6.0730796,0.11583663,-0.14820656,-0.011495771,-76.60663,-84.444626,-2.3724427
6.86112E+12,1.4463884,7.4007974,6.516169,0.11583663,-0.14820656,-0.011495771,-76.60663,-84.444626,-2.3724427
6.86113E+12,1.4463884,7.4007974,6.516169,-0.0642072,0.051546205,-0.029074019,-76.60663,-84.444626,-2.3724427
6.86114E+12,1.4463884,7.4007974,6.516169,-0.0642072,0.051546205,-0.029074019,-75.28255,-84.434044,-1.4313447
6.86114E+12,2.0068371,7.5181565,7.045481,-0.0642072,0.051546205,-0.029074019,-75.28255,-84.434044,-1.4313447
6.86115E+12,2.0068371,7.5181565,7.045481,-0.1339875,0.2262633,0.06520929,-75.28255,-84.434044,-1.4313447
6.86116E+12,2.0068371,7.5181565,7.045481,-0.1339875,0.2262633,0.06520929,-76.586464,-84.06813,-4.213559
6.86116E+12,2.488248,7.8726277,6.968839,-0.1339875,0.2262633,0.06520929,-76.586464,-84.06813,-4.213559
6.86117E+12,2.488248,7.8726277,6.968839,-0.04290024,0.24543954,0.036977563,-76.586464,-84.06813,-4.213559
6.86118E+12,2.488248,7.8726277,6.968839,-0.04290024,0.24543954,0.036977563,-76.42742,-84.170715,-2.9891512
6.86118E+12,1.8032553,7.599589,6.2814517,-0.04290024,0.24543954,0.036977563,-76.42742,-84.170715,-2.9891512
6.86119E+12,1.8032553,7.599589,6.2814517,0.15418915,0.044621438,-0.10098501,-76.42742,-84.170715,-2.9891512
6.8612E+12,1.8032553,7.599589,6.2814517,0.15418915,0.044621438,-0.10098501,-78.27082,-84.60764,-2.0979495
6.86121E+12,1.8032553,7.599589,6.2814517,0.17975752,-0.05818465,-0.10364839,-78.27082,-84.60764,-2.0979495
6.8612E+12,1.4176474,7.3672657,5.7233977,0.17975752,-0.05818465,-0.10364839,-78.27082,-84.60764,-2.0979495
6.86122E+12,1.4176474,7.3672657,5.7233977,0.17975752,-0.05818465,-0.10364839,-74.49221,-85.28458,-2.4386444
6.86123E+12,1.4176474,7.3672657,5.7233977,0.00930182,0.0227818,-0.01788786,-74.49221,-85.28458,-2.4386444
6.86122E+12,1.6499703,7.4151673,5.9844613,0.00930182,0.0227818,-0.01788786,-74.49221,-85.28458,-2.4386444
6.86124E+12,1.6499703,7.4151673,5.9844613,0.00930182,0.0227818,-0.01788786,-74.60919,-84.2531,-3.0968812
6.86124E+12,1.6284144,7.3600802,6.39881,0.00930182,0.0227818,-0.01788786,-74.60919,-84.2531,-3.0968812
6.86125E+12,1.6284144,7.3600802,6.39881,-0.10628844,0.074451186,0.01247456,-74.60919,-84.2531,-3.0968812
6.86126E+12,1.6284144,7.3600802,6.39881,-0.10628844,0.074451186,0.01247456,-75.94029,-84.38603,-3.1203918
6.86126E+12,1.8703176,7.4079823,7.038296,-0.10628844,0.074451186,0.01247456,-75.94029,-84.38603,-3.1203918
6.86127E+12,1.8703176,7.4079823,7.038296,-0.06314185,-0.042737104,0.008745842,-75.94029,-84.38603,-3.1203918
6.86128E+12,1.8703176,7.4079823,7.038296,-0.06314185,-0.042737104,0.008745842,-75.4122,-83.66144,-1.6218753
6.86129E+12,1.8703176,7.4079823,7.038296,0.06203655,-0.11731148,-0.011495771,-75.4122,-83.66144,-1.6218753
6.86128E+12,1.8367865,7.388822,7.1963716,0.06203655,-0.11731148,-0.011495771,-75.4122,-83.66144,-1.6218753
6.8613E+12,1.8367865,7.388822,7.1963716,0.06203655,-0.11731148,-0.011495771,-76.4282,-84.16284,-2.2294466
6.8613E+12,1.6978718,7.247512,6.6886153,0.06203655,-0.11731148,-0.011495771,-76.4282,-84.16284,-2.2294466
6.86131E+12,1.6978718,7.247512,6.6886153,0.083876185,0.047817487,-0.00989775,-76.4282,-84.16284,-2.2294466
6.86132E+12,1.6978718,7.247512,6.6886153,0.083876185,0.047817487,-0.00989775,-76.21319,-83.09025,-2.122101
6.86132E+12,1.6571555,7.17566,6.482638,0.083876185,0.047817487,-0.00989775,-76.21319,-83.09025,-2.122101
6.86133E+12,1.6571555,7.17566,6.482638,0.04392564,0.17672461,0.005549797,-76.21319,-83.09025,-2.122101
6.86134E+12,1.6571555,7.17566,6.482638,0.04392564,0.17672461,0.005549797,-76.09356,-84.1485,-4.0468597
6.86135E+12,1.6571555,7.17566,6.482638,0.063101895,0.121326506,0.005549797,-76.09356,-84.1485,-4.0468597
6.86134E+12,1.4918948,7.1804495,6.211994,0.063101895,0.121326506,0.005549797,-76.09356,-84.1485,-4.0468597
6.86136E+12,1.4918948,7.1804495,6.211994,0.063101895,0.121326506,0.005549797,-76.21319,-83.09025,-2.122101
6.86136E+12,1.4703392,7.158894,6.324563,0.063101895,0.121326506,0.005549797,-76.21319,-83.09025,-2.122101
6.86137E+12,1.4703392,7.158894,6.324563,0.07162469,0.034500632,0.02952013,-76.21319,-83.09025,-2.122101
6.86138E+12,1.4703392,7.158894,6.324563,0.07162469,0.034500632,0.02952013,-76.95707,-84.87956,-2.9682589
6.86139E+12,1.4703392,7.158894,6.324563,0.09506234,-0.005449923,0.07053603,-76.95707,-84.87956,-2.9682589
6.86138E+12,1.6835012,7.3696613,6.1137953,0.09506234,-0.005449923,0.07053603,-76.95707,-84.87956,-2.9682589
6.8614E+12,1.6835012,7.3696613,6.1137953,0.09506234,-0.005449923,0.07053603,-75.45379,-84.59506,-2.6438692
6.8614E+12,2.0475535,7.580428,5.8838677,0.09506234,-0.005449923,0.07053603,-75.45379,-84.59506,-2.6438692
6.86141E+12,2.0475535,7.580428,5.8838677,0.10251979,-0.052325238,0.059882548,-75.45379,-84.59506,-2.6438692
6.86142E+12,2.0475535,7.580428,5.8838677,0.10251979,-0.052325238,0.059882548,-75.92387,-83.97174,-1.314926
6.86142E+12,2.2487402,7.671441,6.058709,0.10251979,-0.052325238,0.059882548,-75.92387,-83.97174,-1.314926
6.86143E+12,2.2487402,7.671441,6.058709,0.009834494,-0.011309337,-0.027475992,-75.92387,-83.97174,-1.314926
6.86144E+12,2.2487402,7.671441,6.058709,0.009834494,-0.011309337,-0.027475992,-74.27751,-84.20884,-2.0274172
6.86144E+12,1.7912799,7.544502,6.4227605,0.009834494,-0.011309337,-0.027475992,-74.27751,-84.20884,-2.0274172
6.86145E+12,1.7912799,7.544502,6.4227605,-0.08231812,0.06326503,-0.13134743,-74.27751,-84.20884,-2.0274172
6.86146E+12,1.7912799,7.544502,6.4227605,-0.08231812,0.06326503,-0.13134743,-76.12638,-84.783875,-1.7380371
6.86146E+12,1.2236458,7.257092,6.216784,-0.08231812,0.06326503,-0.13134743,-76.12638,-84.783875,-1.7380371
6.86147E+12,1.2236458,7.257092,6.216784,-0.08604684,0.10694429,-0.14892569,-76.12638,-84.783875,-1.7380371
6.86148E+12,1.2236458,7.257092,6.216784,-0.08604684,0.10694429,-0.14892569,-76.60694,-84.441475,-2.068561
6.86148E+12,1.1278428,7.146919,5.9796715,-0.08604684,0.10694429,-0.14892569,-76.60694,-84.441475,-2.068561
6.86149E+12,1.1278428,7.146919,5.9796715,-0.051423017,0.05527492,-0.076482005,-76.60694,-84.441475,-2.068561
6.8615E+12,1.1278428,7.146919,5.9796715,-0.051423017,0.05527492,-0.076482005,-75.939514,-84.393906,-3.8800964
6.8615E+12,1.5541669,7.396007,6.0539184,-0.051423017,0.05527492,-0.076482005,-75.939514,-84.393906,-3.8800964
6.86151E+12,1.5541669,7.396007,6.0539184,0.020487975,-0.1354224,-0.02694332,-75.939514,-84.393906,-3.8800964
6.86152E+12,1.5541669,7.396007,6.0539184,0.020487975,-0.1354224,-0.02694332,-75.9109,-83.71601,-2.0865145
6.86152E+12,1.9924667,7.561268,6.465872,0.020487975,-0.1354224,-0.02694332,-75.9109,-83.71601,-2.0865145
6.86153E+12,1.9924667,7.561268,6.465872,0.07588608,-0.28190774,-0.06689387,-75.9109,-83.71601,-2.0865145
6.86154E+12,1.9924667,7.561268,6.465872,0.07588608,-0.28190774,-0.06689387,-76.92892,-84.196945,-0.7188538
6.86154E+12,1.913429,7.659466,6.6119723,0.07588608,-0.28190774,-0.06689387,-76.92892,-84.196945,-0.7188538
6.86155E+12,1.913429,7.659466,6.6119723,0.08707223,-0.25367603,-0.14200093,-76.92892,-84.196945,-0.7188538
6.86156E+12,1.913429,7.659466,6.6119723,0.08707223,-0.25367603,-0.14200093,-74.66485,-85.43143,-2.2837005
6.86157E+12,1.913429,7.659466,6.6119723,0.052448418,-0.10719067,-0.19420299,-74.66485,-85.43143,-2.2837005
6.86156E+12,1.6068587,7.429538,6.338933,0.052448418,-0.10719067,-0.19420299,-74.66485,-85.43143,-2.2837005
6.86158E+12,1.6068587,7.429538,6.338933,0.052448418,-0.10719067,-0.19420299,-73.790535,-84.42259,-2.006717
6.86159E+12,1.6068587,7.429538,6.338933,-0.051955696,0.10587895,-0.17715739,-73.790535,-84.42259,-2.006717
6.86158E+12,1.1230526,7.118178,6.303007,-0.051955696,0.10587895,-0.17715739,-73.790535,-84.42259,-2.006717
6.8616E+12,1.1230526,7.118178,6.303007,-0.051955696,0.10587895,-0.17715739,-75.39344,-83.27077,-2.095523
6.8616E+12,0.92426103,7.012794,6.4730577,-0.051955696,0.10587895,-0.17715739,-75.39344,-83.27077,-2.095523
6.86161E+12,0.92426103,7.012794,6.4730577,-0.089775555,0.17193055,-0.08180875,-75.39344,-83.27077,-2.095523
6.86162E+12,0.92426103,7.012794,6.4730577,-0.089775555,0.17193055,-0.08180875,-76.51966,-86.13983,-2.14032
6.86162E+12,1.2691525,7.3025985,6.4730577,-0.089775555,0.17193055,-0.08180875,-76.51966,-86.13983,-2.14032
6.86163E+12,1.2691525,7.3025985,6.4730577,-0.037573494,0.114934415,0.02046467,-76.51966,-86.13983,-2.14032
6.86164E+12,1.2691525,7.3025985,6.4730577,-0.037573494,0.114934415,0.02046467,-74.62185,-84.51198,-2.629175
6.86164E+12,1.4823147,7.455884,6.485033,-0.037573494,0.114934415,0.02046467,-74.62185,-84.51198,-2.629175
6.86165E+12,1.4823147,7.455884,6.485033,0.042860284,0.004670885,0.03484687,-74.62185,-84.51198,-2.629175
6.86166E+12,1.4823147,7.455884,6.485033,0.042860284,0.004670885,0.03484687,-74.88694,-83.10171,-3.3081758
6.86167E+12,1.4823147,7.455884,6.485033,0.042860284,0.039294697,-0.008299727,-74.88694,-83.10171,-3.3081758
6.86166E+12,1.7242177,7.5277367,6.616762,0.042860284,0.039294697,-0.008299727,-74.88694,-83.10171,-3.3081758
6.86168E+12,1.7242177,7.5277367,6.616762,0.042860284,0.039294697,-0.008299727,-76.183945,-82.418655,-0.9362824
6.86168E+12,1.676316,7.5181565,6.588021,0.042860284,0.039294697,-0.008299727,-76.183945,-82.418655,-0.9362824
6.86169E+12,1.676316,7.5181565,6.588021,0.009834494,0.13144732,-0.07967805,-76.183945,-82.418655,-0.9362824
6.8617E+12,1.676316,7.5181565,6.588021,0.009834494,0.13144732,-0.07967805,-74.949,-84.40868,-2.1851718
6.86171E+12,0.9697675,7.142128,6.2646856,0.009834494,0.13144732,-0.07967805,-74.949,-84.40868,-2.1851718
6.86171E+12,0.9697675,7.142128,6.2646856,0.007171124,0.15754834,-0.13401082,-74.949,-84.40868,-2.1851718
6.86172E+12,0.9697675,7.142128,6.2646856,0.007171124,0.15754834,-0.13401082,-75.454414,-84.58876,-2.0361054
6.86173E+12,0.55302364,6.9936333,5.9533253,0.007171124,0.15754834,-0.13401082,-75.454414,-84.58876,-2.0361054
6.86173E+12,0.55302364,6.9936333,5.9533253,0.009834494,0.0760492,-0.072220616,-75.454414,-84.58876,-2.0361054
6.86174E+12,0.55302364,6.9936333,5.9533253,0.009834494,0.0760492,-0.072220616,-75.454414,-84.58876,-2.0361054
6.86175E+12,0.55302364,6.9936333,5.9533253,0.018357279,-0.07895894,0.032716174,-75.454414,-84.58876,-2.0361054
6.86175E+12,1.0727559,7.1852403,6.4275513,0.018357279,-0.07895894,0.032716174,-75.454414,-84.58876,-2.0361054
6.86176E+12,1.0727559,7.1852403,6.4275513,0.018357279,-0.07895894,0.032716174,-74.25781,-83.82762,-3.412711
6.86177E+12,1.0727559,7.1852403,6.4275513,0.044990983,-0.10079859,0.054023135,-74.25781,-83.82762,-3.412711
6.86177E+12,1.6020685,7.4343286,6.813159,0.044990983,-0.10079859,0.054023135,-74.25781,-83.82762,-3.412711
6.86178E+12,1.6020685,7.4343286,6.813159,0.044990983,-0.10079859,0.054023135,-74.61184,-84.226326,-0.5138856
6.86179E+12,1.5661424,7.494205,6.497009,0.044990983,-0.10079859,0.054023135,-74.61184,-84.226326,-0.5138856
6.86179E+12,1.5661424,7.494205,6.497009,0.06416725,-0.028887581,-0.01256112,-74.61184,-84.226326,-0.5138856
6.8618E+12,1.5661424,7.494205,6.497009,0.06416725,-0.028887581,-0.01256112,-76.92861,-84.20009,-1.0227356
6.86181E+12,1.0440149,7.3600802,6.2000184,0.06416725,-0.028887581,-0.01256112,-76.92861,-84.20009,-1.0227356
6.86181E+12,1.0440149,7.3600802,6.2000184,0.038598895,0.009464953,-0.05996911,-76.92861,-84.20009,-1.0227356
6.86182E+12,1.0440149,7.3600802,6.2000184,0.038598895,0.009464953,-0.05996911,-74.08549,-83.67762,-3.2637727
6.86183E+12,1.0440149,7.3600802,6.2000184,0.021553323,-0.05498861,-0.018420536,-74.08549,-83.67762,-3.2637727
6.86183E+12,1.1278428,7.316969,6.4036007,0.021553323,-0.05498861,-0.018420536,-74.08549,-83.67762,-3.2637727
6.86184E+12,1.1278428,7.316969,6.4036007,0.021553323,-0.05498861,-0.018420536,-75.595955,-84.0829,-2.518634
6.86185E+12,1.1278428,7.316969,6.4036007,0.09772571,-0.17057888,0.006615146,-75.595955,-84.0829,-2.518634
6.86185E+12,1.4176474,7.4031925,6.6526885,0.09772571,-0.17057888,0.006615146,-75.595955,-84.0829,-2.518634
6.86186E+12,1.4176474,7.4031925,6.6526885,0.09772571,-0.17057888,0.006615146,-76.318085,-85.318245,-0.8055632
6.86187E+12,1.4176474,7.4031925,6.6526885,0.2751062,-0.34902468,-0.041325513,-76.318085,-85.318245,-0.8055632
6.86187E+12,1.4583639,7.522946,6.4443164,0.2751062,-0.34902468,-0.041325513,-76.318085,-85.318245,-0.8055632
6.86188E+12,1.4583639,7.522946,6.4443164,0.2751062,-0.34902468,-0.041325513,-75.13352,-84.82228,-2.3222258
6.86189E+12,1.2715476,7.4439087,6.08745,0.2751062,-0.34902468,-0.041325513,-75.13352,-84.82228,-2.3222258
6.86189E+12,1.2715476,7.4439087,6.08745,0.27244282,-0.3282504,-0.0642305,-75.13352,-84.82228,-2.3222258
6.8619E+12,1.2715476,7.4439087,6.08745,0.27244282,-0.3282504,-0.0642305,-76.56049,-83.363464,0.16301885
6.86191E+12,1.6236243,7.5397124,6.38923,0.27244282,-0.3282504,-0.0642305,-76.56049,-83.363464,0.16301885
6.86191E+12,1.6236243,7.5397124,6.38923,0.07588608,-0.12636693,0.001288405,-76.56049,-83.363464,0.16301885
6.86192E+12,1.6236243,7.5397124,6.38923,0.07588608,-0.12636693,0.001288405,-76.44649,-84.558235,-2.2116215
6.86193E+12,1.6236243,7.5397124,6.38923,-0.0967003,0.13570869,0.02419339,-76.44649,-84.558235,-2.2116215
6.86193E+12,1.7457734,7.6522803,6.2359443,-0.0967003,0.13570869,0.02419339,-76.44649,-84.558235,-2.2116215
6.86194E+12,1.7457734,7.6522803,6.2359443,-0.0967003,0.13570869,0.02419339,-76.679794,-86.02622,-2.3011413
6.86195E+12,1.7457734,7.6522803,6.2359443,-0.12972611,0.17938796,-0.017355189,-76.679794,-86.02622,-2.3011413
6.86195E+12,1.5541669,7.568453,6.3461185,-0.12972611,0.17938796,-0.017355189,-76.679794,-86.02622,-2.3011413
6.86196E+12,1.5541669,7.568453,6.3461185,-0.12972611,0.17938796,-0.017355189,-75.627525,-84.73088,-1.4253387
6.86197E+12,1.0871264,7.551687,6.1114,-0.12972611,0.17938796,-0.017355189,-75.627525,-84.73088,-1.4253387
6.86197E+12,1.0871264,7.551687,6.1114,0.007703798,0.005736233,-0.05624039,-75.627525,-84.73088,-1.4253387
6.86198E+12,1.0871264,7.551687,6.1114,0.007703798,0.005736233,-0.05624039,-75.58484,-83.80828,-1.4669313
6.86199E+12,1.3074737,7.506181,6.3197722,0.007703798,0.005736233,-0.05624039,-75.58484,-83.80828,-1.4669313
6.86199E+12,1.3074737,7.506181,6.3197722,0.115303956,-0.1599254,-0.007767054,-75.58484,-83.80828,-1.4669313
6.862E+12,1.3074737,7.506181,6.3197722,0.115303956,-0.1599254,-0.007767054,-76.68057,-86.01835,-1.5414369
6.86201E+12,1.9469601,7.8271213,6.1066103,0.115303956,-0.1599254,-0.007767054,-76.68057,-86.01835,-1.5414369
6.86202E+12,1.9469601,7.8271213,6.1066103,0.12542476,-0.13275902,0.032716174,-76.68057,-86.01835,-1.5414369
6.86202E+12,1.9469601,7.8271213,6.1066103,0.12542476,-0.13275902,0.032716174,-75.424706,-83.92189,-1.3061095
6.86204E+12,1.9469601,7.8271213,6.1066103,0.009834494,-0.019832123,-0.053044345,-75.424706,-83.92189,-1.3061095
6.86203E+12,1.822416,7.786405,5.673101,0.009834494,-0.019832123,-0.053044345,-75.424706,-83.92189,-1.3061095
6.86204E+12,1.822416,7.786405,5.673101,0.009834494,-0.019832123,-0.053044345,-75.96655,-84.89434,-1.2733337
6.86205E+12,1.2404115,7.372056,6.3197722,0.009834494,-0.019832123,-0.053044345,-75.96655,-84.89434,-1.2733337
6.86206E+12,1.2404115,7.372056,6.3197722,-0.14890237,0.05580759,-0.12389,-75.96655,-84.89434,-1.2733337
6.86206E+12,1.2404115,7.372056,6.3197722,-0.14890237,0.05580759,-0.12389,-75.48568,-85.23988,-1.2466918
6.86207E+12,0.8524086,7.0726714,6.901777,-0.14890237,0.05580759,-0.12389,-75.48568,-85.23988,-1.2466918
6.86208E+12,0.8524086,7.0726714,6.901777,-0.083916135,0.030239236,-0.0828741,-75.48568,-85.23988,-1.2466918
6.86208E+12,0.8524086,7.0726714,6.901777,-0.083916135,0.030239236,-0.0828741,-76.27494,-84.40037,-1.3029786
6.8621E+12,0.8524086,7.0726714,6.901777,0.14992777,-0.07736093,0.035379544,-76.27494,-84.40037,-1.3029786
6.86209E+12,0.85480374,7.0990167,6.456292,0.14992777,-0.07736093,0.035379544,-76.27494,-84.40037,-1.3029786
6.8621E+12,0.85480374,7.0990167,6.456292,0.14992777,-0.07736093,0.035379544,-75.44378,-84.30941,-0.52857983
6.86212E+12,0.85480374,7.0990167,6.456292,0.2894884,-0.1434125,0.12699948,-75.44378,-84.30941,-0.52857983
6.86211E+12,1.4679441,7.3193645,6.4275513,0.2894884,-0.1434125,0.12699948,-75.44378,-84.30941,-0.52857983
6.86212E+12,1.4679441,7.3193645,6.4275513,0.2894884,-0.1434125,0.12699948,-75.234245,-83.37492,-1.023056
6.86214E+12,1.4679441,7.3193645,6.4275513,0.25113586,-0.021430146,0.122205414,-75.234245,-83.37492,-1.023056
6.86213E+12,1.9397749,7.7073674,5.970091,0.25113586,-0.021430146,0.122205414,-75.234245,-83.37492,-1.023056
6.86214E+12,1.9397749,7.7073674,5.970091,0.25113586,-0.021430146,0.122205414,-74.949776,-84.40081,-1.425467
6.86216E+12,1.9397749,7.7073674,5.970091,0.13767627,0.018520411,0.038042914,-74.949776,-84.40081,-1.425467
6.86215E+12,1.7769094,7.6522803,6.0539184,0.13767627,0.018520411,0.038042914,-74.949776,-84.40081,-1.425467
