time,aX,aY,aZ,wX,wY,wZ,mX,mY,mZ
674186801978644,0.026335087,7.2182074,5.9804587,0.38426828,0.28574917,-0.055432156,-21.22388,-27.90261,-11.073044
674186802679842,0.026335087,7.2182074,5.9804587,0.40809202,0.27841878,-0.03527362,-21.22388,-27.90261,-11.073044
674186803927342,0.09815805,7.220602,6.01637,0.40809202,0.27841878,-0.03527362,-21.22388,-27.90261,-11.073044
674186806422290,0.15801051,7.206237,6.0235524,0.40809202,0.27841878,-0.03527362,-21.22388,-27.90261,-11.073044
674186805174790,0.15801051,7.206237,6.0235524,0.42641795,0.2662015,-0.011449896,-21.22388,-27.90261,-11.073044
674186807669790,0.15801051,7.206237,6.0235524,0.4459656,0.24970815,0.006876046,-21.22388,-27.90261,-11.073044
674186808917290,0.23222758,7.2182074,5.9996114,0.4459656,0.24970815,0.006876046,-21.22388,-27.90261,-11.073044
674186810164738,0.23222758,7.2182074,5.9996114,0.46795672,0.22344096,0.024591122,-21.22388,-27.90261,-11.073044
674186811412238,0.31841514,7.2134194,5.9325767,0.46795672,0.22344096,0.024591122,-21.22388,-27.90261,-11.073044
674186813907186,0.4285437,7.206237,5.8368125,0.46795672,0.22344096,0.024591122,-21.22388,-27.90261,-11.073044
674186811984998,0.4285437,7.206237,5.8368125,0.46795672,0.22344096,0.024591122,-19.698711,-28.15794,-9.550362
674186812659686,0.4285437,7.206237,5.8368125,0.4820066,0.19473031,0.03986274,-19.698711,-28.15794,-9.550362
674186815154686,0.4285437,7.206237,5.8368125,0.49727827,0.16479795,0.049636576,-19.698711,-28.15794,-9.550362
674186816402186,0.5243076,7.196661,5.7386546,0.49727827,0.16479795,0.049636576,-19.698711,-28.15794,-9.550362
674186818897134,0.6511949,7.203843,5.6428905,0.49727827,0.16479795,0.049636576,-19.698711,-28.15794,-9.550362
674186817649634,0.6511949,7.203843,5.6428905,0.50888467,0.13181125,0.05757782,-19.698711,-28.15794,-9.550362
674186821392082,0.775688,7.1846905,5.5375504,0.50888467,0.13181125,0.05757782,-19.698711,-28.15794,-9.550362
674186820144582,0.775688,7.1846905,5.5375504,0.5137716,0.09760282,0.061243005,-19.698711,-28.15794,-9.550362
674186821978071,0.775688,7.1846905,5.5375504,0.5137716,0.09760282,0.061243005,-19.258057,-28.572437,-10.323704
674186822639530,0.775688,7.1846905,5.5375504,0.5125499,0.06461613,0.0649082,-19.258057,-28.572437,-10.323704
674186823887030,0.897787,7.177508,5.456151,0.5125499,0.06461613,0.0649082,-19.258057,-28.572437,-10.323704
674186826382030,1.0103097,7.1703253,5.355599,0.5125499,0.06461613,0.0649082,-19.258057,-28.572437,-10.323704
674186825134530,1.0103097,7.1703253,5.355599,0.50949556,0.03895981,0.06368647,-19.258057,-28.572437,-10.323704
674186828876978,1.1036795,7.1655374,5.264623,0.50949556,0.03895981,0.06368647,-19.258057,-28.572437,-10.323704
674186827629478,1.1036795,7.1655374,5.264623,0.50399774,0.011470895,0.058188684,-19.258057,-28.572437,-10.323704
674186831371926,1.2090199,7.1631436,5.1784353,0.50399774,0.011470895,0.058188684,-19.258057,-28.572437,-10.323704
674186830124426,1.2090199,7.1631436,5.1784353,0.49239135,-0.01235283,0.052080035,-19.258057,-28.572437,-10.323704
674186832619426,1.2090199,7.1631436,5.1784353,0.4807849,-0.03862001,0.040473606,-19.258057,-28.572437,-10.323704
674186832032342,1.2090199,7.1631436,5.1784353,0.4807849,-0.03862001,0.040473606,-20.673576,-29.891384,-12.15601
674186833866926,1.3143603,7.1607494,5.092248,0.4807849,-0.03862001,0.040473606,-20.673576,-29.891384,-12.15601
674186835114373,1.3143603,7.1607494,5.092248,0.46245897,-0.06427633,0.029478043,-20.673576,-29.891384,-12.15601
674186836361873,1.3933655,7.1439905,5.0036664,0.46245897,-0.06427633,0.029478043,-20.673576,-29.891384,-12.15601
674186838856821,1.4651884,7.127232,4.9102964,0.46245897,-0.06427633,0.029478043,-20.673576,-29.891384,-12.15601
674186837609321,1.4651884,7.127232,4.9102964,0.44535476,-0.09298697,0.017260745,-20.673576,-29.891384,-12.15601
674186841351821,1.4939176,7.1128674,4.8384733,0.44535476,-0.09298697,0.017260745,-20.673576,-29.891384,-12.15601
674186840104321,1.4939176,7.1128674,4.8384733,0.42702878,-0.119865015,7.673986E-4,-20.673576,-29.891384,-12.15601
674186842599269,1.4939176,7.1128674,4.8384733,0.40687025,-0.1497974,-0.01694768,-20.673576,-29.891384,-12.15601
674186842028019,1.4939176,7.1128674,4.8384733,0.40687025,-0.1497974,-0.01694768,-20.008236,-28.161766,-10.316174
674186843846769,1.5178586,7.0961084,4.79538,0.40687025,-0.1497974,-0.01694768,-20.008236,-28.161766,-10.316174
674186845094217,1.5178586,7.0961084,4.79538,0.38549,-0.17301024,-0.033441026,-20.008236,-28.161766,-10.316174
674186846341717,1.503494,7.103291,4.781015,0.38549,-0.17301024,-0.033441026,-20.008236,-28.161766,-10.316174
674186848836665,1.479553,7.07935,4.79538,0.38549,-0.17301024,-0.033441026,-20.008236,-28.161766,-10.316174
674186847589165,1.479553,7.07935,4.79538,0.36349887,-0.19927743,-0.051766966,-20.008236,-28.161766,-10.316174
674186851331665,1.4508239,7.055409,4.826503,0.36349887,-0.19927743,-0.051766966,-20.008236,-28.161766,-10.316174
674186850084165,1.4508239,7.055409,4.826503,0.34578377,-0.21821424,-0.06642772,-20.008236,-28.161766,-10.316174
674186852579113,1.4508239,7.055409,4.826503,0.32990134,-0.23837277,-0.081088476,-20.008236,-28.161766,-10.316174
674186852031717,1.4508239,7.055409,4.826503,0.32990134,-0.23837277,-0.081088476,-19.694345,-27.868095,-10.011494
674186853826613,1.4244888,7.0386505,4.845656,0.32990134,-0.23837277,-0.081088476,-19.694345,-27.868095,-10.011494
674186855074061,1.4244888,7.0386505,4.845656,0.31462967,-0.25425526,-0.09758182,-19.694345,-27.868095,-10.011494
674186856321561,1.3981537,7.009921,4.9126906,0.31462967,-0.25425526,-0.09758182,-19.694345,-27.868095,-10.011494
674186857569061,1.3981537,7.009921,4.9126906,0.30119067,-0.26952687,-0.11102084,-19.694345,-27.868095,-10.011494
674186858816561,1.3766067,7.007527,4.9773316,0.30119067,-0.26952687,-0.11102084,-19.694345,-27.868095,-10.011494
674186860064009,1.3766067,7.007527,4.9773316,0.29141682,-0.28663108,-0.12323814,-19.694345,-27.868095,-10.011494
674186861311509,1.3406953,6.9907684,5.018031,0.29141682,-0.28663108,-0.12323814,-19.694345,-27.868095,-10.011494
674186862025780,1.3406953,6.9907684,5.018031,0.29141682,-0.28663108,-0.12323814,-21.389887,-28.482075,-10.91806
674186863806457,1.333513,6.9979506,5.039578,0.29141682,-0.28663108,-0.12323814,-21.389887,-28.482075,-10.91806
674186862558957,1.333513,6.9979506,5.039578,0.2883625,-0.29762664,-0.13789889,-21.389887,-28.482075,-10.91806
674186865053957,1.333513,6.9979506,5.039578,0.28775167,-0.31350914,-0.1519488,-21.389887,-28.482075,-10.91806
674186866301457,1.3047838,6.9979506,5.0754895,0.28775167,-0.31350914,-0.1519488,-21.389887,-28.482075,-10.91806
674186867548905,1.3047838,6.9979506,5.0754895,0.2871408,-0.3300025,-0.16294435,-21.389887,-28.482075,-10.91806
674186868796405,1.2784487,7.0003443,5.0994306,0.2871408,-0.3300025,-0.16294435,-21.389887,-28.482075,-10.91806
674186871291353,1.2808429,7.0003443,5.142524,0.2871408,-0.3300025,-0.16294435,-21.389887,-28.482075,-10.91806
674186870043853,1.2808429,7.0003443,5.142524,0.290806,-0.3452741,-0.17699423,-21.389887,-28.482075,-10.91806
674186872032030,1.2808429,7.0003443,5.142524,0.290806,-0.3452741,-0.17699423,-20.17424,-28.741234,-10.16119
674186872538853,1.2808429,7.0003443,5.142524,0.29386032,-0.35443708,-0.19226585,-20.17424,-28.741234,-10.16119
674186873786353,1.2521136,7.0003443,5.183224,0.29386032,-0.35443708,-0.19226585,-20.17424,-28.741234,-10.16119
674186875033801,1.2521136,7.0003443,5.183224,0.3024124,-0.3623783,-0.20448315,-20.17424,-28.741234,-10.16119
674186876281301,1.2185962,6.978798,5.2191353,0.3024124,-0.3623783,-0.20448315,-20.17424,-28.741234,-10.16119
674186877528748,1.2185962,6.978798,5.2191353,0.30729932,-0.36726522,-0.21670045,-20.17424,-28.741234,-10.16119
674186878776248,1.2066257,6.9668274,5.2239237,0.30729932,-0.36726522,-0.21670045,-20.17424,-28.741234,-10.16119
674186880023696,1.2066257,6.9668274,5.2239237,0.31707317,-0.3697087,-0.22769602,-20.17424,-28.741234,-10.16119
674186881271196,1.1898671,6.9692216,5.2287116,0.31707317,-0.3697087,-0.22769602,-20.17424,-28.741234,-10.16119
674186882518696,1.1898671,6.9692216,5.2287116,0.31890577,-0.36909783,-0.23502639,-20.17424,-28.741234,-10.16119
674186883766196,1.1922611,6.952463,5.214347,0.31890577,-0.36909783,-0.23502639,-20.17424,-28.741234,-10.16119
674186882032030,1.1922611,6.952463,5.214347,0.31890577,-0.36909783,-0.23502639,-20.746012,-27.46809,-9.539772
674186885013644,1.1922611,6.952463,5.214347,0.32440352,-0.36482176,-0.24602196,-20.746012,-27.46809,-9.539772
674186886261144,1.1898671,6.959645,5.2023764,0.32440352,-0.36482176,-0.24602196,-20.746012,-27.46809,-9.539772
674186888756092,1.1850789,6.981192,5.1760416,0.32440352,-0.36482176,-0.24602196,-20.746012,-27.46809,-9.539772
674186887508592,1.1850789,6.981192,5.1760416,0.33173388,-0.3538262,-0.2625153,-20.746012,-27.46809,-9.539772
674186890003592,1.1850789,6.981192,5.1760416,0.33417737,-0.34099805,-0.27045655,-20.746012,-27.46809,-9.539772
674186891251092,1.1778966,6.9907684,5.1329474,0.33417737,-0.34099805,-0.27045655,-20.746012,-27.46809,-9.539772
674186893746040,1.1611378,7.009921,5.1042185,0.33417737,-0.34099805,-0.27045655,-20.746012,-27.46809,-9.539772
674186892498540,1.1611378,7.009921,5.1042185,0.33417737,-0.32572642,-0.27900866,-20.746012,-27.46809,-9.539772
674186892032655,1.1611378,7.009921,5.1042185,0.33417737,-0.32572642,-0.27900866,-21.534771,-28.639172,-9.225403
674186896240988,1.1348027,7.0218916,5.0587306,0.33417737,-0.32572642,-0.27900866,-21.534771,-28.639172,-9.225403
674186894993488,1.1348027,7.0218916,5.0587306,0.33112305,-0.3074005,-0.2869499,-21.534771,-28.639172,-9.225403
674186897488488,1.1348027,7.0218916,5.0587306,0.32806873,-0.28357676,-0.29733458,-21.534771,-28.639172,-9.225403
674186898735988,1.1108619,7.0194974,5.0060606,0.32806873,-0.28357676,-0.29733458,-21.534771,-28.639172,-9.225403
674186901230936,1.0797385,7.0171037,4.948602,0.32806873,-0.28357676,-0.29733458,-21.534771,-28.639172,-9.225403
674186899983436,1.0797385,7.0171037,4.948602,0.3201275,-0.26158562,-0.30527583,-21.534771,-28.639172,-9.225403
674186902478384,1.0797385,7.0171037,4.948602,0.31218624,-0.23715104,-0.3107736,-21.534771,-28.639172,-9.225403
674186903725884,1.0462211,7.031468,4.90072,0.31218624,-0.23715104,-0.3107736,-21.534771,-28.639172,-9.225403
674186902032655,1.0462211,7.031468,4.90072,0.31218624,-0.23715104,-0.3107736,-18.395557,-30.853218,-9.103481
674186906220832,0.99594504,7.0386505,4.867203,0.31218624,-0.23715104,-0.3107736,-18.395557,-30.853218,-9.103481
674186904973332,0.99594504,7.0386505,4.867203,0.29752547,-0.21210559,-0.31321707,-18.395557,-30.853218,-9.103481
674186907468332,0.99594504,7.0386505,4.867203,0.2846973,-0.18522754,-0.31566054,-18.395557,-30.853218,-9.103481
674186908715832,0.9552454,7.055409,4.828897,0.2846973,-0.18522754,-0.31566054,-18.395557,-30.853218,-9.103481
674186909963280,0.9552454,7.055409,4.828897,0.2712583,-0.15712777,-0.31932572,-18.395557,-30.853218,-9.103481
674186911210780,0.88821065,7.0673795,4.79538,0.2712583,-0.15712777,-0.31932572,-18.395557,-30.853218,-9.103481
674186913705728,0.85229915,7.076956,4.7834096,0.2712583,-0.15712777,-0.31932572,-18.395557,-30.853218,-9.103481
674186912458228,0.85229915,7.076956,4.7834096,0.25476494,-0.12902799,-0.31871486,-18.395557,-30.853218,-9.103481
674186912032655,0.85229915,7.076956,4.7834096,0.25476494,-0.12902799,-0.31871486,-20.169216,-28.745506,-9.392441
674186914953228,0.85229915,7.076956,4.7834096,0.236439,-0.10092821,-0.32054746,-20.169216,-28.745506,-9.392441
674186916200728,0.8139936,7.100897,4.776227,0.236439,-0.10092821,-0.32054746,-20.169216,-28.745506,-9.392441
674186917448176,0.8139936,7.100897,4.776227,0.21811306,-0.07710449,-0.32054746,-20.169216,-28.745506,-9.392441
674186918695676,0.8139936,7.1152616,4.7618623,0.21811306,-0.07710449,-0.32054746,-20.169216,-28.745506,-9.392441
674186919943123,0.8139936,7.1152616,4.7618623,0.20406318,-0.05511336,-0.31993657,-20.169216,-28.745506,-9.392441
674186921190623,0.775688,7.122444,4.75468,0.20406318,-0.05511336,-0.31993657,-20.169216,-28.745506,-9.392441
674186922438123,0.775688,7.122444,4.75468,0.18573724,-0.02823531,-0.31749314,-20.169216,-28.745506,-9.392441
674186923685623,0.7445647,7.124838,4.7618623,0.18573724,-0.02823531,-0.31749314,-20.169216,-28.745506,-9.392441
674186922032655,0.7445647,7.124838,4.7618623,0.18573724,-0.02823531,-0.31749314,-19.910677,-30.606438,-9.088661
674186926180571,0.70625913,7.124838,4.773833,0.18573724,-0.02823531,-0.31749314,-19.910677,-30.606438,-9.088661
674186924933071,0.70625913,7.124838,4.773833,0.17107649,-0.008076776,-0.3144388,-19.910677,-30.606438,-9.088661
674186927428019,0.70625913,7.124838,4.773833,0.15580487,0.01208176,-0.31138447,-19.910677,-30.606438,-9.088661
674186928675519,0.70386505,7.122444,4.79538,0.15580487,0.01208176,-0.31138447,-19.910677,-30.606438,-9.088661
674186929923019,0.70386505,7.122444,4.79538,0.14053325,0.029185971,-0.30649757,-19.910677,-30.606438,-9.088661
674186931170519,0.68950045,7.129626,4.828897,0.14053325,0.029185971,-0.30649757,-19.910677,-30.606438,-9.088661
674186932417967,0.68950045,7.129626,4.828897,0.12953769,0.045679323,-0.30344325,-19.910677,-30.606438,-9.088661
674186933665467,0.6631654,7.122444,4.871991,0.12953769,0.045679323,-0.30344325,-19.910677,-30.606438,-9.088661
674186931015155,0.6631654,7.122444,4.871991,0.12953769,0.045679323,-0.30344325,-20.064606,-30.755836,-8.779751
674186932798957,0.6631654,7.122444,4.871991,0.12953769,0.045679323,-0.30344325,-20.064606,-30.755836,-8.779751
674186934912915,0.6631654,7.122444,4.871991,0.11854212,0.0615618,-0.29855633,-20.064606,-30.755836,-8.779751
674186936160415,0.66077125,7.1392026,4.917479,0.11854212,0.0615618,-0.29855633,-20.064606,-30.755836,-8.779751
674186938655363,0.6559831,7.13202,4.9773316,0.11854212,0.0615618,-0.29855633,-20.064606,-30.755836,-8.779751
674186937407863,0.6559831,7.13202,4.9773316,0.10754655,0.077444285,-0.29611287,-20.064606,-30.755836,-8.779751
674186939902863,0.6559831,7.13202,4.9773316,0.10082704,0.093937635,-0.29305854,-20.064606,-30.755836,-8.779751
674186941150363,0.6200716,7.13202,5.04676,0.10082704,0.093937635,-0.29305854,-20.064606,-30.755836,-8.779751
674186943645311,0.5913424,7.124838,5.0994306,0.10082704,0.093937635,-0.29305854,-20.064606,-30.755836,-8.779751
674186942397811,0.5913424,7.124838,5.0994306,0.09410753,0.1049332,-0.29122594,-20.064606,-30.755836,-8.779751
674186942619894,0.5913424,7.124838,5.0994306,0.09410753,0.1049332,-0.29122594,-18.956932,-29.295364,-8.020691
674186946140259,0.5769778,7.1104736,5.1473126,0.09410753,0.1049332,-0.29122594,-18.956932,-29.295364,-8.020691
674186944892759,0.5769778,7.1104736,5.1473126,0.08860975,0.11287444,-0.29000422,-18.956932,-29.295364,-8.020691
674186947387759,0.5769778,7.1104736,5.1473126,0.08494456,0.12570259,-0.29000422,-18.956932,-29.295364,-8.020691
674186948635259,0.55543095,7.0961084,5.2023764,0.08494456,0.12570259,-0.29000422,-18.956932,-29.295364,-8.020691
674186949882707,0.55543095,7.0961084,5.2023764,0.08372283,0.13547644,-0.28572816,-18.956932,-29.295364,-8.020691
674186951130207,0.5530368,7.07935,5.259835,0.08372283,0.13547644,-0.28572816,-18.956932,-29.295364,-8.020691
674186952377655,0.5530368,7.07935,5.259835,0.0825011,0.14280681,-0.28450644,-18.956932,-29.295364,-8.020691
674186953625155,0.533884,7.076956,5.329264,0.0825011,0.14280681,-0.28450644,-18.956932,-29.295364,-8.020691
674186952637238,0.533884,7.076956,5.329264,0.0825011,0.14280681,-0.28450644,-18.514265,-29.711567,-8.486534
674186954872655,0.533884,7.076956,5.329264,0.08189023,0.14952633,-0.28389558,-18.514265,-29.711567,-8.486534
674186956120155,0.5362781,7.0721674,5.37954,0.08189023,0.14952633,-0.28389558,-18.514265,-29.711567,-8.486534
674186957367603,0.5362781,7.0721674,5.37954,0.083111964,0.15563497,-0.28084123,-18.514265,-29.711567,-8.486534
674186958615103,0.5626132,7.0889263,5.403481,0.083111964,0.15563497,-0.28084123,-18.514265,-29.711567,-8.486534
674186959862551,0.5626132,7.0889263,5.403481,0.086166285,0.15746756,-0.28145212,-18.514265,-29.711567,-8.486534
674186961110051,0.61528337,7.0697737,5.4441805,0.086166285,0.15746756,-0.28145212,-18.514265,-29.711567,-8.486534
674186963605051,0.6583771,7.07935,5.4872746,0.086166285,0.15746756,-0.28145212,-18.514265,-29.711567,-8.486534
674186962357551,0.6583771,7.07935,5.4872746,0.093496665,0.15930016,-0.28145212,-18.514265,-29.711567,-8.486534
674186962592863,0.6583771,7.07935,5.4872746,0.093496665,0.15930016,-0.28145212,-19.269472,-29.296623,-9.247753
674186964852498,0.6583771,7.07935,5.4872746,0.09716185,0.15991102,-0.2832847,-19.269472,-29.296623,-9.247753
674186966099998,0.7230178,7.108079,5.506427,0.09716185,0.15991102,-0.2832847,-19.269472,-29.296623,-9.247753
674186968594946,0.77329385,7.129626,5.530368,0.09716185,0.15991102,-0.2832847,-19.269472,-29.296623,-9.247753
674186967347446,0.77329385,7.129626,5.530368,0.10449223,0.15746756,-0.2851173,-19.269472,-29.296623,-9.247753
674186969842394,0.77329385,7.129626,5.530368,0.108768284,0.15563497,-0.28756076,-19.269472,-29.296623,-9.247753
674186971089894,0.8211759,7.1439905,5.5112157,0.108768284,0.15563497,-0.28756076,-19.269472,-29.296623,-9.247753
674186972337394,0.8211759,7.1439905,5.5112157,0.11243347,0.15258065,-0.2918368,-19.269472,-29.296623,-9.247753
674186973584894,0.8690579,7.1392026,5.480092,0.11243347,0.15258065,-0.2918368,-19.269472,-29.296623,-9.247753
674186972661509,0.8690579,7.1392026,5.480092,0.11243347,0.15258065,-0.2918368,-18.523657,-29.997139,-8.794151
674186974832342,0.8690579,7.1392026,5.480092,0.11609866,0.14586113,-0.29428026,-18.523657,-29.997139,-8.794151
674186976079842,0.897787,7.13202,5.4417863,0.11609866,0.14586113,-0.29428026,-18.523657,-29.997139,-8.794151
674186977327290,0.897787,7.13202,5.4417863,0.114876926,0.13547644,-0.29855633,-18.523657,-29.997139,-8.794151
674186978574790,0.91933393,7.1344147,5.3962984,0.114876926,0.13547644,-0.29855633,-18.523657,-29.997139,-8.794151
674186979822290,0.91933393,7.1344147,5.3962984,0.110600874,0.12020482,-0.3003889,-18.523657,-29.997139,-8.794151
674186981069790,0.9001811,7.105685,5.329264,0.110600874,0.12020482,-0.3003889,-18.523657,-29.997139,-8.794151
674186983564738,0.8810283,7.0865326,5.2694116,0.110600874,0.12020482,-0.3003889,-18.523657,-29.997139,-8.794151
674186982317238,0.8810283,7.0865326,5.2694116,0.10388137,0.10248974,-0.30161065,-18.523657,-29.997139,-8.794151
674186982540415,0.8810283,7.0865326,5.2694116,0.10388137,0.10248974,-0.30161065,-17.28284,-28.956692,-9.266743
674186984812186,0.8810283,7.0865326,5.2694116,0.0947184,0.086607255,-0.2991672,-17.28284,-28.956692,-9.266743
674186986059686,0.84511685,7.060197,5.2047706,0.0947184,0.086607255,-0.2991672,-17.28284,-28.956692,-9.266743
674186988554686,0.8068113,7.031468,5.1497064,0.0947184,0.086607255,-0.2991672,-17.28284,-28.956692,-9.266743
674186987307186,0.8068113,7.031468,5.1497064,0.08127937,0.065226994,-0.2991672,-17.28284,-28.956692,-9.266743
674186989802134,0.8068113,7.031468,5.1497064,0.06234256,0.045679323,-0.2936694,-17.28284,-28.956692,-9.266743
674186991049634,0.7637175,6.9931626,5.0994306,0.06234256,0.045679323,-0.2936694,-17.28284,-28.956692,-9.266743
674186992297082,0.7637175,6.9931626,5.0994306,0.044627488,0.027353378,-0.29122594,-17.28284,-28.956692,-9.266743
674186993544582,0.7230178,6.952463,5.068307,0.044627488,0.027353378,-0.29122594,-17.28284,-28.956692,-9.266743
674186992555623,0.7230178,6.952463,5.068307,0.044627488,0.027353378,-0.29122594,-18.384502,-30.862621,-7.4122353
674186994792082,0.7230178,6.952463,5.068307,0.022025492,0.009638301,-0.286339,-18.384502,-30.862621,-7.4122353
674186996039582,0.70625913,6.9213395,5.0323954,0.022025492,0.009638301,-0.286339,-18.384502,-30.862621,-7.4122353
674186998534530,0.6871063,6.8997927,5.0084543,0.022025492,0.009638301,-0.286339,-18.384502,-30.862621,-7.4122353
674186997287030,0.6871063,6.8997927,5.0084543,-5.7650264E-4,-0.0062441807,-0.28145212,-18.384502,-30.862621,-7.4122353
674187001029478,0.68231815,6.8950043,5.0060606,-5.7650264E-4,-0.0062441807,-0.28145212,-18.384502,-30.862621,-7.4122353
674186999781978,0.68231815,6.8950043,5.0060606,-0.028676279,-0.025791852,-0.27412173,-18.384502,-30.862621,-7.4122353
674187002276926,0.68231815,6.8950043,5.0060606,-0.05738692,-0.040452607,-0.27167827,-18.384502,-30.862621,-7.4122353
674187003524426,0.7086533,6.904581,5.0012727,-0.05738692,-0.040452607,-0.27167827,-18.384502,-30.862621,-7.4122353
674187002500155,0.7086533,6.904581,5.0012727,-0.05738692,-0.040452607,-0.27167827,-17.773476,-30.407806,-8.8016815
674187004771926,0.7086533,6.904581,5.0012727,-0.08304324,-0.05572422,-0.2680131,-17.773476,-30.407806,-8.8016815
674187006019426,0.727806,6.909369,4.996484,-0.08304324,-0.05572422,-0.2680131,-17.773476,-30.407806,-8.8016815
674187007266873,0.727806,6.909369,4.996484,-0.1062561,-0.07099584,-0.26190445,-17.773476,-30.407806,-8.8016815
674187008514373,0.775688,6.9261274,5.020425,-0.1062561,-0.07099584,-0.26190445,-17.773476,-30.407806,-8.8016815
674187009761821,0.775688,6.9261274,5.020425,-0.12885809,-0.08076967,-0.25885013,-17.773476,-30.407806,-8.8016815
674187011009321,0.8283582,6.9404926,5.04676,-0.12885809,-0.08076967,-0.25885013,-17.773476,-30.407806,-8.8016815
674187012256821,0.8283582,6.9404926,5.04676,-0.14840576,-0.091154374,-0.25579578,-17.773476,-30.407806,-8.8016815
674187013504321,0.897787,6.9692216,5.070701,-0.14840576,-0.091154374,-0.25579578,-17.773476,-30.407806,-8.8016815
674187012514373,0.897787,6.9692216,5.070701,-0.14840576,-0.091154374,-0.25579578,-17.300632,-29.969013,-8.037163
674187014751769,0.897787,6.9692216,5.070701,-0.16734257,-0.101539075,-0.2539632,-17.300632,-29.969013,-8.037163
674187015999269,0.94806314,6.983586,5.113795,-0.16734257,-0.101539075,-0.2539632,-17.300632,-29.969013,-8.037163
674187017246717,0.94806314,6.983586,5.113795,-0.18139246,-0.10520426,-0.2539632,-17.300632,-29.969013,-8.037163
674187018494217,1.0270684,7.0218916,5.164071,-0.18139246,-0.10520426,-0.2539632,-17.300632,-29.969013,-8.037163
674187020989217,1.0797385,7.055409,5.2335,-0.18139246,-0.10520426,-0.2539632,-17.300632,-29.969013,-8.037163
674187019741717,1.0797385,7.055409,5.2335,-0.1911663,-0.10520426,-0.25823924,-17.300632,-29.969013,-8.037163
674187023484165,1.1371969,7.0721674,5.312505,-0.1911663,-0.10520426,-0.25823924,-17.300632,-29.969013,-8.037163
674187022236665,1.1371969,7.0721674,5.312505,-0.19849667,-0.104593396,-0.25823924,-17.300632,-29.969013,-8.037163
674187022463540,1.1371969,7.0721674,5.312505,-0.19849667,-0.104593396,-0.25823924,-17.802322,-31.41072,-9.263351
674187024731613,1.1371969,7.0721674,5.312505,-0.20277272,-0.10092821,-0.26373702,-17.802322,-31.41072,-9.263351
674187025979113,1.163532,7.103291,5.3939047,-0.20277272,-0.10092821,-0.26373702,-17.802322,-31.41072,-9.263351
674187027226561,1.163532,7.103291,5.3939047,-0.20460533,-0.091154374,-0.27167827,-17.802322,-31.41072,-9.263351
674187028474061,1.1802906,7.124838,5.4896684,-0.20460533,-0.091154374,-0.27167827,-17.802322,-31.41072,-9.263351
674187029721561,1.1802906,7.124838,5.4896684,-0.20032926,-0.081991404,-0.27534345,-17.802322,-31.41072,-9.263351
674187030969061,1.1994435,7.13202,5.5614915,-0.20032926,-0.081991404,-0.27534345,-17.802322,-31.41072,-9.263351
674187032216509,1.1994435,7.13202,5.5614915,-0.19544235,-0.06855238,-0.2832847,-17.802322,-31.41072,-9.263351
674187033464009,1.187473,7.1415963,5.6381025,-0.19544235,-0.06855238,-0.2832847,-17.802322,-31.41072,-9.263351
674187032474790,1.187473,7.1415963,5.6381025,-0.19544235,-0.06855238,-0.2832847,-17.815403,-31.839931,-9.5710335
674187034711509,1.187473,7.1415963,5.6381025,-0.1893337,-0.05572422,-0.29305854,-17.815403,-31.839931,-9.5710335
674187035959009,1.1707143,7.146385,5.674014,-0.1893337,-0.05572422,-0.29305854,-17.815403,-31.839931,-9.5710335
674187037206457,1.1707143,7.146385,5.674014,-0.18017073,-0.04595039,-0.29794547,-17.815403,-31.839931,-9.5710335
674187038453957,1.1324087,7.1583557,5.72429,-0.18017073,-0.04595039,-0.29794547,-17.815403,-31.839931,-9.5710335
674187040948905,1.1228323,7.153567,5.772172,-0.18017073,-0.04595039,-0.29794547,-17.815403,-31.839931,-9.5710335
674187039701405,1.1228323,7.153567,5.772172,-0.1667317,-0.031900503,-0.30710843,-17.815403,-31.839931,-9.5710335
674187042196353,1.1228323,7.153567,5.772172,-0.14962749,-0.022737527,-0.31566054,-17.815403,-31.839931,-9.5710335
674187043443853,1.1132559,7.151173,5.798507,-0.14962749,-0.022737527,-0.31566054,-17.815403,-31.839931,-9.5710335
674187042430676,1.1132559,7.151173,5.798507,-0.14962749,-0.022737527,-0.31566054,-18.689661,-30.5766,-8.639172
674187044691353,1.1132559,7.151173,5.798507,-0.13191243,-0.017239748,-0.32115832,-18.689661,-30.5766,-8.639172
674187045938853,1.0893148,7.146385,5.815266,-0.13191243,-0.017239748,-0.32115832,-18.689661,-30.5766,-8.639172
674187047186301,1.0893148,7.146385,5.815266,-0.1148082,-0.0068550464,-0.32787782,-18.689661,-30.5766,-8.639172
674187048433801,1.0629798,7.155961,5.822448,-0.1148082,-0.0068550464,-0.32787782,-18.689661,-30.5766,-8.639172
674187049681248,1.0629798,7.155961,5.822448,-0.09037362,0.0016970597,-0.33581907,-18.689661,-30.5766,-8.639172
674187050928748,1.0103097,7.148779,5.843995,-0.09037362,0.0016970597,-0.33581907,-18.689661,-30.5766,-8.639172
674187052176248,1.0103097,7.148779,5.843995,-0.06899335,0.008416572,-0.3419277,-18.689661,-30.5766,-8.639172
674187053423748,0.9528513,7.17272,5.822448,-0.06899335,0.008416572,-0.3419277,-18.689661,-30.5766,-8.639172
674187052436248,0.9528513,7.17272,5.822448,-0.06899335,0.008416572,-0.3419277,-20.062595,-30.757545,-8.472252
674187054671196,0.9528513,7.17272,5.822448,-0.048834816,0.011470895,-0.34620377,-20.062595,-30.757545,-8.472252
674187055918696,0.90257525,7.1679316,5.7817483,-0.048834816,0.011470895,-0.34620377,-20.062595,-30.757545,-8.472252
674187057166144,0.90257525,7.1679316,5.7817483,-0.028065413,0.010860031,-0.34986895,-20.062595,-30.757545,-8.472252
674187058413644,0.85229915,7.17272,5.7147136,-0.028065413,0.010860031,-0.34986895,-20.062595,-30.757545,-8.472252
674187059661144,0.85229915,7.17272,5.7147136,-0.010350339,0.013303489,-0.35231242,-20.062595,-30.757545,-8.472252
674187060908644,0.8163877,7.1703253,5.6357083,-0.010350339,0.013303489,-0.35231242,-20.062595,-30.757545,-8.472252
674187062156092,0.8163877,7.1703253,5.6357083,0.007975603,0.009638301,-0.3559776,-20.062595,-30.757545,-8.472252
674187062408228,0.8163877,7.1703253,5.6357083,0.007975603,0.009638301,-0.3559776,-18.411652,-31.279861,-9.87241
674187063403592,0.7780821,7.177508,5.5447326,0.007975603,0.009638301,-0.3559776,-18.411652,-31.279861,-9.87241
674187064651040,0.7780821,7.177508,5.5447326,0.020192899,0.0041405186,-0.35903192,-18.411652,-31.279861,-9.87241
674187065898540,0.7637175,7.203843,5.429816,0.020192899,0.0041405186,-0.35903192,-18.411652,-31.279861,-9.87241
674187067146040,0.7637175,7.203843,5.429816,0.031188462,-0.0068550464,-0.35719934,-18.411652,-31.279861,-9.87241
674187068393540,0.7445647,7.227784,5.3005347,0.031188462,-0.0068550464,-0.35719934,-18.411652,-31.279861,-9.87241
674187069640988,0.7445647,7.227784,5.3005347,0.03851884,-0.022126665,-0.35658848,-18.411652,-31.279861,-9.87241
674187070888488,0.7373824,7.2660894,5.1784353,0.03851884,-0.022126665,-0.35658848,-18.411652,-31.279861,-9.87241
674187072135936,0.7373824,7.2660894,5.1784353,0.04279489,-0.03739828,-0.3559776,-18.411652,-31.279861,-9.87241
674187073383436,0.7397765,7.3115773,5.0491543,0.04279489,-0.03739828,-0.3559776,-18.411652,-31.279861,-9.87241
674187072394269,0.7397765,7.3115773,5.0491543,0.04279489,-0.03739828,-0.3559776,-15.822725,-31.064808,-10.358593
674187074630884,0.7397765,7.3115773,5.0491543,0.044016622,-0.056335084,-0.35658848,-15.822725,-31.064808,-10.358593
674187075878384,0.7565352,7.321154,4.927055,0.044016622,-0.056335084,-0.35658848,-15.822725,-31.064808,-10.358593
674187077125884,0.7565352,7.321154,4.927055,0.039129704,-0.07466103,-0.3559776,-15.822725,-31.064808,-10.358593
674187078373384,0.7445647,7.3546715,4.79538,0.039129704,-0.07466103,-0.3559776,-15.822725,-31.064808,-10.358593
674187079620832,0.7445647,7.3546715,4.79538,0.031188462,-0.0942087,-0.35414502,-15.822725,-31.064808,-10.358593
674187080868332,0.7158355,7.3642473,4.6876454,0.031188462,-0.0942087,-0.35414502,-15.822725,-31.064808,-10.358593
674187082115780,0.7158355,7.3642473,4.6876454,0.020803763,-0.11192378,-0.3510907,-15.822725,-31.064808,-10.358593
674187083363280,0.70386505,7.373824,4.5751224,0.020803763,-0.11192378,-0.3510907,-15.822725,-31.064808,-10.358593
674187082339686,0.70386505,7.373824,4.5751224,0.020803763,-0.11192378,-0.3510907,-15.822725,-31.064808,-10.358593
674187084610780,0.70386505,7.373824,4.5751224,0.007975603,-0.12780626,-0.34437117,-15.822725,-31.064808,-10.358593
674187085858280,0.67752993,7.3834004,4.4721766,0.007975603,-0.12780626,-0.34437117,-15.822725,-31.064808,-10.358593
674187088353228,0.68471223,7.400159,4.3740187,0.007975603,-0.12780626,-0.34437117,-15.822725,-31.064808,-10.358593
674187087105728,0.68471223,7.400159,4.3740187,-0.012793798,-0.14307788,-0.34009513,-15.822725,-31.064808,-10.358593
674187089600676,0.68471223,7.400159,4.3740187,-0.031730603,-0.15529518,-0.33581907,-15.822725,-31.064808,-10.358593
674187090848176,0.68950045,7.397765,4.2974076,-0.031730603,-0.15529518,-0.33581907,-15.822725,-31.064808,-10.358593
674187093343176,0.70386505,7.4073415,4.2112193,-0.031730603,-0.15529518,-0.33581907,-15.822725,-31.064808,-10.358593
674187092095676,0.70386505,7.4073415,4.2112193,-0.053110868,-0.16629073,-0.33032128,-15.822725,-31.064808,-10.358593
674187092354582,0.70386505,7.4073415,4.2112193,-0.053110868,-0.16629073,-0.33032128,-17.780857,-30.695087,-8.801804
674187094590623,0.70386505,7.4073415,4.2112193,-0.07754546,-0.1772863,-0.3248235,-17.780857,-30.695087,-8.801804
674187095838123,0.71344143,7.4264946,4.146579,-0.07754546,-0.1772863,-0.3248235,-17.780857,-30.695087,-8.801804
674187098333071,0.7469588,7.4504356,4.120244,-0.07754546,-0.1772863,-0.3248235,-17.780857,-30.695087,-8.801804
674187097085571,0.7469588,7.4504356,4.120244,-0.10259091,-0.18156235,-0.31993657,-17.780857,-30.695087,-8.801804
674187100828071,0.7469588,7.462406,4.122638,-0.10259091,-0.18156235,-0.31993657,-17.780857,-30.695087,-8.801804
674187099580571,0.7469588,7.462406,4.122638,-0.1306907,-0.18278408,-0.31199536,-17.780857,-30.695087,-8.801804
674187102296613,0.7469588,7.462406,4.122638,-0.1306907,-0.18278408,-0.31199536,-16.427376,-31.231487,-9.122772
674187103323019,0.7589293,7.495923,4.137003,-0.1306907,-0.18278408,-0.31199536,-16.427376,-31.231487,-9.122772
674187102075519,0.7589293,7.495923,4.137003,-0.15756874,-0.1772863,-0.3095519,-16.427376,-31.231487,-9.122772
674187104570467,0.7589293,7.495923,4.137003,-0.18505765,-0.1705668,-0.30527583,-16.427376,-31.231487,-9.122772
674187105817967,0.7852644,7.541411,4.1609435,-0.18505765,-0.1705668,-0.30527583,-16.427376,-31.231487,-9.122772
674187107065467,0.7852644,7.541411,4.1609435,-0.21376829,-0.15896036,-0.3022215,-16.427376,-31.231487,-9.122772
674187108312967,0.799629,7.5461993,4.1777024,-0.21376829,-0.15896036,-0.3022215,-16.427376,-31.231487,-9.122772
674187109560415,0.799629,7.5461993,4.1777024,-0.23759201,-0.14491047,-0.29855633,-16.427376,-31.231487,-9.122772
674187110807915,0.8044172,7.5581694,4.237555,-0.23759201,-0.14491047,-0.29855633,-16.427376,-31.231487,-9.122772
674187113302863,0.8044172,7.5749283,4.2782545,-0.23759201,-0.14491047,-0.29855633,-16.427376,-31.231487,-9.122772
674187112055363,0.8044172,7.5749283,4.2782545,-0.2620266,-0.12902799,-0.295502,-16.427376,-31.231487,-9.122772
674187112313384,0.8044172,7.5749283,4.2782545,-0.2620266,-0.12902799,-0.295502,-17.608477,-29.827484,-9.110413
674187114550311,0.8044172,7.5749283,4.2782545,-0.28707206,-0.10825859,-0.2918368,-17.608477,-29.827484,-9.110413
674187115797811,0.8115995,7.567746,4.342895,-0.28707206,-0.10825859,-0.2918368,-17.608477,-29.827484,-9.110413
674187117045311,0.8115995,7.567746,4.342895,-0.3084523,-0.08993265,-0.28939337,-17.608477,-29.827484,-9.110413
674187118292811,0.7972349,7.5773225,4.40993,-0.3084523,-0.08993265,-0.28939337,-17.608477,-29.827484,-9.110413
674187120787759,0.79005253,7.5797167,4.479359,-0.3084523,-0.08993265,-0.28939337,-17.608477,-29.827484,-9.110413
674187119540259,0.79005253,7.5797167,4.479359,-0.32861084,-0.06916325,-0.28756076,-17.608477,-29.827484,-9.110413
674187122035207,0.79005253,7.5797167,4.479359,-0.34938025,-0.04595039,-0.2832847,-17.608477,-29.827484,-9.110413
674187123282707,0.82357,7.5964756,4.577517,-0.34938025,-0.04595039,-0.2832847,-17.608477,-29.827484,-9.110413
674187122263071,0.82357,7.5964756,4.577517,-0.34938025,-0.04595039,-0.2832847,-17.663828,-31.982082,-9.111313
674187124530207,0.82357,7.5964756,4.577517,-0.36526275,-0.022737527,-0.28389558,-17.663828,-31.982082,-9.111313
674187125777707,0.81878173,7.618022,4.678069,-0.36526275,-0.022737527,-0.28389558,-17.663828,-31.982082,-9.111313
674187127025155,0.81878173,7.618022,4.678069,-0.37992352,0.0029187892,-0.286339,-17.663828,-31.982082,-9.111313
674187128272655,0.85469323,7.6467514,4.773833,-0.37992352,0.0029187892,-0.286339,-17.663828,-31.982082,-9.111313
674187129520103,0.85469323,7.6467514,4.773833,-0.38725388,0.02368819,-0.29489112,-17.663828,-31.982082,-9.111313
674187130767603,0.88821065,7.66351,4.867203,-0.38725388,0.02368819,-0.29489112,-17.663828,-31.982082,-9.111313
674187133262603,0.93130445,7.711392,4.9581785,-0.38725388,0.02368819,-0.29489112,-17.663828,-31.982082,-9.111313
674187132244946,0.93130445,7.711392,4.9581785,-0.38725388,0.02368819,-0.29489112,-16.876087,-31.250477,-7.888359
674187132015103,0.93130445,7.711392,4.9581785,-0.39458424,0.045068458,-0.29977804,-16.876087,-31.250477,-7.888359
674187134510051,0.93130445,7.711392,4.9581785,-0.40069288,0.0615618,-0.30710843,-16.876087,-31.250477,-7.888359
674187135757551,0.9576395,7.737727,5.0563364,-0.40069288,0.0615618,-0.30710843,-16.876087,-31.250477,-7.888359
674187138252498,0.9648218,7.75688,5.1544943,-0.40069288,0.0615618,-0.30710843,-16.876087,-31.250477,-7.888359
674187137004998,0.9648218,7.75688,5.1544943,-0.39886028,0.07805515,-0.31504968,-16.876087,-31.250477,-7.888359
674187140747446,0.9648218,7.780821,5.264623,-0.39886028,0.07805515,-0.31504968,-16.876087,-31.250477,-7.888359
674187139499946,0.9648218,7.780821,5.264623,-0.39824945,0.09332677,-0.32421264,-16.876087,-31.250477,-7.888359
674187141994946,0.9648218,7.780821,5.264623,-0.39275163,0.112263575,-0.33459735,-16.876087,-31.250477,-7.888359
674187143242446,0.96961,7.7903976,5.377146,-0.39275163,0.112263575,-0.33459735,-16.876087,-31.250477,-7.888359
674187142220832,0.96961,7.7903976,5.377146,-0.39275163,0.112263575,-0.33459735,-18.532717,-30.429768,-8.486832
674187144489894,0.96961,7.7903976,5.377146,-0.38297784,0.12875693,-0.34559292,-18.532717,-30.429768,-8.486832
674187145737394,0.9504572,7.7975793,5.499245,-0.38297784,0.12875693,-0.34559292,-18.532717,-30.429768,-8.486832
674187146984842,0.9504572,7.7975793,5.499245,-0.373204,0.14036335,-0.35292327,-18.532717,-30.429768,-8.486832
674187148232342,0.93130445,7.807156,5.5902205,-0.373204,0.14036335,-0.35292327,-18.532717,-30.429768,-8.486832
674187150727342,0.92412215,7.80955,5.669226,-0.373204,0.14036335,-0.35292327,-18.532717,-30.429768,-8.486832
674187149479842,0.92412215,7.80955,5.669226,-0.35854322,0.15502411,-0.36269712,-18.532717,-30.429768,-8.486832
674187151974790,0.92412215,7.80955,5.669226,-0.3396064,0.16174361,-0.36941662,-18.532717,-30.429768,-8.486832
674187153222290,0.89539295,7.7903976,5.741049,-0.3396064,0.16174361,-0.36941662,-18.532717,-30.429768,-8.486832
674187152233540,0.89539295,7.7903976,5.741049,-0.3396064,0.16174361,-0.36941662,-19.902637,-30.613277,-7.8586617
674187154469738,0.89539295,7.7903976,5.741049,-0.32189137,0.17396091,-0.37919047,-19.902637,-30.613277,-7.8586617
674187155717238,0.86666375,7.7975793,5.796113,-0.32189137,0.17396091,-0.37919047,-19.902637,-30.613277,-7.8586617
674187156964738,0.86666375,7.7975793,5.796113,-0.30234367,0.1776261,-0.38835344,-19.902637,-30.613277,-7.8586617
674187158212238,0.83793455,7.7760324,5.846389,-0.30234367,0.1776261,-0.38835344,-19.902637,-30.613277,-7.8586617
674187159459686,0.83793455,7.7760324,5.846389,-0.28585035,0.18129128,-0.39507294,-19.902637,-30.613277,-7.8586617
674187160707186,0.83075225,7.7903976,5.8607535,-0.28585035,0.18129128,-0.39507294,-19.902637,-30.613277,-7.8586617
674187163202134,0.80920535,7.80955,5.8799067,-0.28585035,0.18129128,-0.39507294,-19.902637,-30.613277,-7.8586617
674187161954634,0.80920535,7.80955,5.8799067,-0.26691353,0.18434562,-0.4060685,-19.902637,-30.613277,-7.8586617
674187162188488,0.80920535,7.80955,5.8799067,-0.26691353,0.18434562,-0.4060685,-18.523657,-29.997139,-8.794151
674187164449634,0.80920535,7.80955,5.8799067,-0.24553324,0.18190216,-0.41278803,-18.523657,-29.997139,-8.794151
674187165697134,0.77329385,7.831097,5.863148,-0.24553324,0.18190216,-0.41278803,-18.523657,-29.997139,-8.794151
674187168192082,0.74217063,7.8430676,5.841601,-0.24553324,0.18190216,-0.41278803,-18.523657,-29.997139,-8.794151
674187166944582,0.74217063,7.8430676,5.841601,-0.22781818,0.17640437,-0.421951,-18.523657,-29.997139,-8.794151
674187169439530,0.74217063,7.8430676,5.841601,-0.20949224,0.1654088,-0.42928138,-18.523657,-29.997139,-8.794151
674187170687030,0.7110473,7.8478556,5.791325,-0.20949224,0.1654088,-0.42928138,-18.523657,-29.997139,-8.794151
674187171934478,0.7110473,7.8478556,5.791325,-0.19483149,0.15380238,-0.43600088,-18.523657,-29.997139,-8.794151
674187173181978,0.6583771,7.833491,5.7290783,-0.19483149,0.15380238,-0.43600088,-18.523657,-29.997139,-8.794151
674187172168540,0.6583771,7.833491,5.7290783,-0.19483149,0.15380238,-0.43600088,-18.390188,-30.564224,-9.410862
674187174429478,0.6583771,7.833491,5.7290783,-0.18078159,0.13853076,-0.43844435,-18.390188,-30.564224,-9.410862
674187175676978,0.6176775,7.85025,5.678802,-0.18078159,0.13853076,-0.43844435,-18.390188,-30.564224,-9.410862
674187176924426,0.6176775,7.85025,5.678802,-0.17222948,0.12387001,-0.4408878,-18.390188,-30.564224,-9.410862
674187178171926,0.5745837,7.8670087,5.61895,-0.17222948,0.12387001,-0.4408878,-18.390188,-30.564224,-9.410862
674187179419426,0.5745837,7.8670087,5.61895,-0.16489911,0.10737666,-0.44149867,-18.390188,-30.564224,-9.410862
674187180666926,0.533884,7.878979,5.554309,-0.16489911,0.10737666,-0.44149867,-18.390188,-30.564224,-9.410862
674187181914373,0.533884,7.878979,5.554309,-0.15756874,0.09027245,-0.4408878,-18.390188,-30.564224,-9.410862
674187183161873,0.46445516,7.8861613,5.4872746,-0.15756874,0.09027245,-0.4408878,-18.390188,-30.564224,-9.410862
674187182135311,0.46445516,7.8861613,5.4872746,-0.15756874,0.09027245,-0.4408878,-17.161116,-30.100906,-9.42244
674187185656821,0.43812007,7.898132,5.4154515,-0.15756874,0.09027245,-0.4408878,-17.161116,-30.100906,-9.42244
674187184409321,0.43812007,7.898132,5.4154515,-0.15695786,0.077444285,-0.43539003,-17.161116,-30.100906,-9.42244
674187188151769,0.3974204,7.905314,5.33884,-0.15695786,0.077444285,-0.43539003,-17.161116,-30.100906,-9.42244
674187186904269,0.3974204,7.905314,5.33884,-0.156347,0.05972921,-0.43111396,-17.161116,-30.100906,-9.42244
674187190646769,0.3782676,7.924467,5.2741995,-0.156347,0.05972921,-0.43111396,-17.161116,-30.100906,-9.42244
674187189399269,0.3782676,7.924467,5.2741995,-0.16062306,0.04629018,-0.42928138,-17.161116,-30.100906,-9.42244
674187191894217,0.3782676,7.924467,5.2741995,-0.16978604,0.035294622,-0.4201184,-17.161116,-30.100906,-9.42244
674187193141717,0.3615089,7.9460135,5.209559,-0.16978604,0.035294622,-0.4201184,-17.161116,-30.100906,-9.42244
674187192153436,0.3615089,7.9460135,5.209559,-0.16978604,0.035294622,-0.4201184,-18.07259,-29.686588,-10.797192
674187195636665,0.32799155,7.957984,5.166465,-0.16978604,0.035294622,-0.4201184,-18.07259,-29.686588,-10.797192
674187194389165,0.32799155,7.957984,5.166465,-0.17833814,0.02490992,-0.4097337,-18.07259,-29.686588,-10.797192
674187198131665,0.29447415,7.9603786,5.113795,-0.17833814,0.02490992,-0.4097337,-18.07259,-29.686588,-10.797192
674187196884165,0.29447415,7.9603786,5.113795,-0.18994457,0.016357813,-0.4011816,-18.07259,-29.686588,-10.797192
674187199379113,0.29447415,7.9603786,5.113795,-0.20521618,0.007194842,-0.38774258,-18.07259,-29.686588,-10.797192
674187200626613,0.26335087,7.979531,5.0826716,-0.20521618,0.007194842,-0.38774258,-18.07259,-29.686588,-10.797192
674187203121561,0.23940988,7.9915013,5.0563364,-0.20521618,0.007194842,-0.38774258,-18.07259,-29.686588,-10.797192
674187201874061,0.23940988,7.9915013,5.0563364,-0.21926607,0.0023079244,-0.3730818,-18.07259,-29.686588,-10.797192
674187202121821,0.23940988,7.9915013,5.0563364,-0.21926607,0.0023079244,-0.3730818,-17.18258,-30.81654,-9.883991
674187204369061,0.23940988,7.9915013,5.0563364,-0.23392683,0.0023079244,-0.36391884,-17.18258,-30.81654,-9.883991
674187205616561,0.22983348,8.020231,5.037184,-0.23392683,0.0023079244,-0.36391884,-17.18258,-30.81654,-9.883991
674187208111509,0.21546888,8.039384,5.039578,-0.23392683,0.0023079244,-0.36391884,-17.18258,-30.81654,-9.883991
674187206864009,0.21546888,8.039384,5.039578,-0.24980931,-1.3553444E-4,-0.34864724,-17.18258,-30.81654,-9.883991
674187209358957,0.21546888,8.039384,5.039578,-0.2638592,4.7533028E-4,-0.33581907,-17.18258,-30.81654,-9.883991
674187210606457,0.22265118,8.065719,5.037184,-0.2638592,4.7533028E-4,-0.33581907,-17.18258,-30.81654,-9.883991
674187213101405,0.22025707,8.104025,5.065913,-0.2638592,4.7533028E-4,-0.33581907,-17.18258,-30.81654,-9.883991
674187211853905,0.22025707,8.104025,5.065913,-0.2772982,0.0029187892,-0.32176918,-17.18258,-30.81654,-9.883991
674187212112134,0.22025707,8.104025,5.065913,-0.2772982,0.0029187892,-0.32176918,-16.592014,-31.07822,-11.581242
674187214348905,0.22025707,8.104025,5.065913,-0.2895155,0.0065839775,-0.3095519,-16.592014,-31.07822,-11.581242
674187215596405,0.23462167,8.104025,5.1042185,-0.2895155,0.0065839775,-0.3095519,-16.592014,-31.07822,-11.581242
674187218091353,0.26813906,8.118389,5.142524,-0.2895155,0.0065839775,-0.3095519,-16.592014,-31.07822,-11.581242
674187216843853,0.26813906,8.118389,5.142524,-0.30112195,0.015136084,-0.29733458,-16.592014,-31.07822,-11.581242
674187220586301,0.27532133,8.14233,5.166465,-0.30112195,0.015136084,-0.29733458,-16.592014,-31.07822,-11.581242
674187219338801,0.27532133,8.14233,5.166465,-0.30967402,0.02368819,-0.2851173,-16.592014,-31.07822,-11.581242
674187221833801,0.27532133,8.14233,5.166465,-0.31822616,0.031018566,-0.2747326,-16.592014,-31.07822,-11.581242
674187223081301,0.29447415,8.168665,5.190406,-0.31822616,0.031018566,-0.2747326,-16.592014,-31.07822,-11.581242
674187222055311,0.29447415,8.168665,5.190406,-0.31822616,0.031018566,-0.2747326,-17.001156,-29.956638,-8.808853
674187224328748,0.29447415,8.168665,5.190406,-0.3267783,0.040792402,-0.26312616,-17.001156,-29.956638,-8.808853
674187225576248,0.31602103,8.159088,5.2191353,-0.3267783,0.040792402,-0.26312616,-17.001156,-29.956638,-8.808853
674187226823696,0.31602103,8.159088,5.2191353,-0.33105433,0.053009696,-0.2539632,-17.001156,-29.956638,-8.808853
674187228071196,0.32080922,8.163877,5.259835,-0.33105433,0.053009696,-0.2539632,-17.001156,-29.956638,-8.808853
674187229318696,0.32080922,8.163877,5.259835,-0.33655208,0.062172666,-0.2454111,-17.001156,-29.956638,-8.808853
674187230566196,0.31602103,8.171059,5.3005347,-0.33655208,0.062172666,-0.2454111,-17.001156,-29.956638,-8.808853
674187233061144,0.31123284,8.159088,5.357993,-0.33655208,0.062172666,-0.2454111,-17.001156,-29.956638,-8.808853
674187231813644,0.31123284,8.159088,5.357993,-0.34266073,0.077444285,-0.23685898,-17.001156,-29.956638,-8.808853
674187232067655,0.31123284,8.159088,5.357993,-0.34266073,0.077444285,-0.23685898,-17.313696,-29.957897,-10.035912
674187235556092,0.31841514,8.137542,5.410663,-0.34266073,0.077444285,-0.23685898,-17.313696,-29.957897,-10.035912
674187234308592,0.31841514,8.137542,5.410663,-0.34815854,0.092715904,-0.22769602,-17.313696,-29.957897,-10.035912
674187238051092,0.30165642,8.123177,5.475304,-0.34815854,0.092715904,-0.22769602,-17.313696,-29.957897,-10.035912
674187236803592,0.30165642,8.123177,5.475304,-0.35426718,0.112263575,-0.21975477,-17.313696,-29.957897,-10.035912
674187239298540,0.30165642,8.123177,5.475304,-0.36220843,0.13058951,-0.2124244,-17.313696,-29.957897,-10.035912
674187240546040,0.29208007,8.14233,5.530368,-0.36220843,0.13058951,-0.2124244,-17.313696,-29.957897,-10.035912
674187241793488,0.29208007,8.14233,5.530368,-0.36526275,0.14586113,-0.21059181,-17.313696,-29.957897,-10.035912
674187243040988,0.31602103,8.168665,5.5614915,-0.36526275,0.14586113,-0.21059181,-17.313696,-29.957897,-10.035912
674187242016665,0.31602103,8.168665,5.5614915,-0.36526275,0.14586113,-0.21059181,-17.030315,-30.37217,-11.576534
674187245535988,0.33038563,8.202183,5.5902205,-0.36526275,0.14586113,-0.21059181,-17.030315,-30.37217,-11.576534
674187244288488,0.33038563,8.202183,5.5902205,-0.3750366,0.1605219,-0.20570488,-17.030315,-30.37217,-11.576534
674187246783436,0.33038563,8.202183,5.5902205,-0.37809092,0.16846313,-0.20326142,-17.030315,-30.37217,-11.576534
674187248030936,0.34953842,8.228518,5.621344,-0.37809092,0.16846313,-0.20326142,-17.030315,-30.37217,-11.576534
674187250525884,0.3662971,8.245276,5.6572556,-0.37809092,0.16846313,-0.20326142,-17.030315,-30.37217,-11.576534
674187249278384,0.3662971,8.245276,5.6572556,-0.38114524,0.17701523,-0.20203969,-17.030315,-30.37217,-11.576534
674187251773332,0.3662971,8.245276,5.6572556,-0.38053435,0.18068042,-0.19959624,-17.030315,-30.37217,-11.576534
674187253020832,0.3686912,8.266823,5.697955,-0.38053435,0.18068042,-0.19959624,-17.030315,-30.37217,-11.576534
674187252018748,0.3686912,8.266823,5.697955,-0.38053435,0.18068042,-0.19959624,-17.161776,-29.806782,-10.652321
674187254268332,0.3686912,8.266823,5.697955,-0.38236696,0.18373474,-0.19715278,-17.161776,-29.806782,-10.652321
674187255515832,0.3806617,8.281187,5.7578077,-0.38236696,0.18373474,-0.19715278,-17.161776,-29.806782,-10.652321
674187256763280,0.3806617,8.281187,5.7578077,-0.38175607,0.18251301,-0.19532019,-17.161776,-29.806782,-10.652321
674187258010780,0.363903,8.293158,5.8032956,-0.38175607,0.18251301,-0.19532019,-17.161776,-29.806782,-10.652321
674187259258228,0.363903,8.293158,5.8032956,-0.38419956,0.18251301,-0.19348758,-17.161776,-29.806782,-10.652321
674187260505728,0.35193253,8.309917,5.867936,-0.38419956,0.18251301,-0.19348758,-17.161776,-29.806782,-10.652321
674187263000728,0.3471443,8.326675,5.9230003,-0.38419956,0.18251301,-0.19348758,-17.161776,-29.806782,-10.652321
674187261753228,0.3471443,8.326675,5.9230003,-0.38297784,0.18006957,-0.1898224,-17.161776,-29.806782,-10.652321
674187261977446,0.3471443,8.326675,5.9230003,-0.38297784,0.18006957,-0.1898224,-16.457886,-31.939423,-10.968071
674187264248176,0.3471443,8.326675,5.9230003,-0.37870175,0.17823696,-0.19043326,-16.457886,-31.939423,-10.968071
674187265495676,0.34235612,8.35301,5.9756703,-0.37870175,0.17823696,-0.19043326,-16.457886,-31.939423,-10.968071
674187267990623,0.31602103,8.364981,6.040311,-0.37870175,0.17823696,-0.19043326,-16.457886,-31.939423,-10.968071
674187266743123,0.31602103,8.364981,6.040311,-0.37870175,0.17335005,-0.18676808,-16.457886,-31.939423,-10.968071
674187269238123,0.31602103,8.364981,6.040311,-0.37014967,0.169074,-0.18004857,-16.457886,-31.939423,-10.968071
674187270485623,0.29926234,8.388922,6.0977697,-0.37014967,0.169074,-0.18004857,-16.457886,-31.939423,-10.968071
674187272980571,0.28729185,8.403287,6.1695924,-0.37014967,0.169074,-0.18004857,-16.457886,-31.939423,-10.968071
674187271733071,0.28729185,8.403287,6.1695924,-0.36648446,0.16479795,-0.17638338,-16.457886,-31.939423,-10.968071
674187272008123,0.28729185,8.403287,6.1695924,-0.36648446,0.16479795,-0.17638338,-15.980675,-31.210785,-10.6646805
674187275475519,0.28010955,8.424833,6.25578,-0.36648446,0.16479795,-0.17638338,-15.980675,-31.210785,-10.6646805
674187274228019,0.28010955,8.424833,6.25578,-0.3609867,0.1605219,-0.1708856,-15.980675,-31.210785,-10.6646805
674187276723019,0.28010955,8.424833,6.25578,-0.35304546,0.1568567,-0.16660954,-15.980675,-31.210785,-10.6646805
674187277970519,0.27053314,8.429622,6.322815,-0.35304546,0.1568567,-0.16660954,-15.980675,-31.210785,-10.6646805
674187279217967,0.27053314,8.429622,6.322815,-0.34266073,0.14891545,-0.1605009,-15.980675,-31.210785,-10.6646805
674187280465467,0.26574495,8.415257,6.377879,-0.34266073,0.14891545,-0.1605009,-15.980675,-31.210785,-10.6646805
674187281712915,0.26574495,8.415257,6.377879,-0.33166516,0.13547644,-0.15011619,-15.980675,-31.210785,-10.6646805
674187281977915,0.26574495,8.415257,6.377879,-0.33166516,0.13547644,-0.15011619,-17.337172,-30.671822,-10.804962
674187282960415,0.25856268,8.391316,6.4377313,-0.33166516,0.13547644,-0.15011619,-17.337172,-30.671822,-10.804962
674187284207915,0.25856268,8.391316,6.4377313,-0.31761527,0.121426545,-0.14584014,-17.337172,-30.671822,-10.804962
674187285455415,0.25856268,8.379346,6.497584,-0.31761527,0.121426545,-0.14584014,-17.337172,-30.671822,-10.804962
674187287950363,0.25856268,8.3745575,6.550254,-0.31761527,0.121426545,-0.14584014,-17.337172,-30.671822,-10.804962
674187286702863,0.25856268,8.3745575,6.550254,-0.30295455,0.109209254,-0.14034235,-17.337172,-30.671822,-10.804962
674187289197811,0.25856268,8.3745575,6.550254,-0.28523946,0.09882455,-0.13301198,-17.337172,-30.671822,-10.804962
674187290445311,0.25856268,8.357799,6.6029243,-0.28523946,0.09882455,-0.13301198,-17.337172,-30.671822,-10.804962
674187291692759,0.25856268,8.357799,6.6029243,-0.26935697,0.08294207,-0.12934679,-17.337172,-30.671822,-10.804962
674187292940259,0.25377446,8.35301,6.672353,-0.26935697,0.08294207,-0.12934679,-17.337172,-30.671822,-10.804962
674187292009165,0.25377446,8.35301,6.672353,-0.26935697,0.08294207,-0.12934679,-16.284502,-31.072681,-11.122932
674187294187759,0.25377446,8.35301,6.672353,-0.25164193,0.0719465,-0.12201641,-16.284502,-31.072681,-11.122932
674187295435259,0.24659218,8.362587,6.7489643,-0.25164193,0.0719465,-0.12201641,-16.284502,-31.072681,-11.122932
674187296682707,0.24659218,8.362587,6.7489643,-0.2327051,0.06461613,-0.123849005,-16.284502,-31.072681,-11.122932
674187297930207,0.26335087,8.362587,6.8064227,-0.2327051,0.06461613,-0.123849005,-16.284502,-31.072681,-11.122932
674187300425155,0.25377446,8.376951,6.856699,-0.2327051,0.06461613,-0.123849005,-16.284502,-31.072681,-11.122932
674187299177655,0.25377446,8.376951,6.856699,-0.21743348,0.05545316,-0.11896209,-16.284502,-31.072681,-11.122932
674187301672655,0.25377446,8.376951,6.856699,-0.19544235,0.04629018,-0.115907766,-16.284502,-31.072681,-11.122932
674187302920155,0.21307479,8.3745575,6.885428,-0.19544235,0.04629018,-0.115907766,-16.284502,-31.072681,-11.122932
674187305415103,0.1819515,8.350616,6.906975,-0.19544235,0.04629018,-0.115907766,-16.284502,-31.072681,-11.122932
674187301989634,0.1819515,8.350616,6.906975,-0.19544235,0.04629018,-0.115907766,-16.284845,-31.365944,-10.0468025
674187304167603,0.1819515,8.350616,6.906975,-0.17833814,0.03285116,-0.11285344,-16.284845,-31.365944,-10.0468025
674187307910051,0.14843413,8.333858,6.911763,-0.17833814,0.03285116,-0.11285344,-16.284845,-31.365944,-10.0468025
674187306662551,0.14843413,8.333858,6.911763,-0.16062306,0.023077324,-0.10918825,-16.284845,-31.365944,-10.0468025
674187309157551,0.14843413,8.333858,6.911763,-0.14229712,0.008416572,-0.10246874,-16.284845,-31.365944,-10.0468025
674187310405051,0.12209904,8.314705,6.8973985,-0.14229712,0.008416572,-0.10246874,-16.284845,-31.365944,-10.0468025
674187312899998,0.074217066,8.2764,6.885428,-0.14229712,0.008416572,-0.10246874,-16.284845,-31.365944,-10.0468025
674187311652498,0.074217066,8.2764,6.885428,-0.12458204,-0.005633317,-0.09758182,-16.284845,-31.365944,-10.0468025
674187311996561,0.074217066,8.2764,6.885428,-0.12458204,-0.005633317,-0.09758182,-16.420986,-30.503025,-10.967472
674187314147446,0.074217066,8.2764,6.885428,-0.10747783,-0.02029407,-0.090251446,-16.420986,-30.503025,-10.967472
674187315394946,0.02154689,8.252459,6.88064,-0.10747783,-0.02029407,-0.090251446,-16.420986,-30.503025,-10.967472
674187316642446,0.02154689,8.252459,6.88064,-0.09342794,-0.036176555,-0.0841428,-16.420986,-30.503025,-10.967472
674187317889946,-0.014364593,8.221335,6.856699,-0.09342794,-0.036176555,-0.0841428,-16.420986,-30.503025,-10.967472
674187319137394,-0.014364593,8.221335,6.856699,-0.08487584,-0.052059032,-0.07436896,-16.420986,-30.503025,-10.967472
674187320384894,-0.074217066,8.185424,6.859093,-0.08487584,-0.052059032,-0.07436896,-16.420986,-30.503025,-10.967472
674187322879842,-0.11012854,8.175847,6.837546,-0.08487584,-0.052059032,-0.07436896,-16.420986,-30.503025,-10.967472
674187321632342,-0.11012854,8.175847,6.837546,-0.075102,-0.06855238,-0.06581686,-16.420986,-30.503025,-10.967472
674187321993488,-0.11012854,8.175847,6.837546,-0.075102,-0.06855238,-0.06581686,-16.56854,-30.364292,-10.812191
674187325374842,-0.13646363,8.171059,6.7992406,-0.075102,-0.06855238,-0.06581686,-16.56854,-30.364292,-10.812191
674187324127342,-0.13646363,8.171059,6.7992406,-0.067160755,-0.08565659,-0.055432156,-16.56854,-30.364292,-10.812191
674187327869790,-0.14364593,8.151906,6.7465706,-0.067160755,-0.08565659,-0.055432156,-16.56854,-30.364292,-10.812191
674187326622290,-0.14364593,8.151906,6.7465706,-0.05738692,-0.101539075,-0.043825723,-16.56854,-30.364292,-10.812191
674187329117238,-0.14364593,8.151906,6.7465706,-0.051278275,-0.122919336,-0.034662753,-16.56854,-30.364292,-10.812191
674187330364738,-0.15801051,8.137542,6.7082644,-0.051278275,-0.122919336,-0.034662753,-16.56854,-30.364292,-10.812191
674187331612186,-0.15801051,8.137542,6.7082644,-0.047002222,-0.14491047,-0.027332377,-16.56854,-30.364292,-10.812191
674187332859686,-0.14604004,8.120783,6.6579885,-0.047002222,-0.14491047,-0.027332377,-16.56854,-30.364292,-10.812191
674187331978071,-0.14604004,8.120783,6.6579885,-0.047002222,-0.14491047,-0.027332377,-14.897467,-30.02306,-12.519489
674187335354686,-0.11491674,8.118389,6.622077,-0.047002222,-0.14491047,-0.027332377,-14.897467,-30.02306,-12.519489
674187334107186,-0.11491674,8.118389,6.622077,-0.04516963,-0.1687342,-0.015725948,-14.897467,-30.02306,-12.519489
674187337849634,-0.09576395,8.111206,6.567013,-0.04516963,-0.1687342,-0.015725948,-14.897467,-30.02306,-12.519489
674187336602134,-0.09576395,8.111206,6.567013,-0.042726167,-0.1895036,-0.0077847075,-14.897467,-30.02306,-12.519489
674187339097082,-0.09576395,8.111206,6.567013,-0.042726167,-0.21454905,0.001989128,-14.897467,-30.02306,-12.519489
674187340344582,-0.07182296,8.115995,6.516737,-0.042726167,-0.21454905,0.001989128,-14.897467,-30.02306,-12.519489
674187341592082,-0.07182296,8.115995,6.516737,-0.039671846,-0.23776191,0.006265181,-14.897467,-30.02306,-12.519489
674187342839582,-0.031123282,8.132753,6.471249,-0.039671846,-0.23776191,0.006265181,-14.897467,-30.02306,-12.519489
674187341978801,-0.031123282,8.132753,6.471249,-0.039671846,-0.23776191,0.006265181,-15.163055,-28.59647,-12.20845
674187344087030,-0.031123282,8.132753,6.471249,-0.039671846,-0.26097476,0.012984692,-15.163055,-28.59647,-12.20845
674187345334530,0.0,8.159088,6.4425197,-0.039671846,-0.26097476,0.012984692,-15.163055,-28.59647,-12.20845
674187347829478,0.05985247,8.180635,6.404214,-0.039671846,-0.26097476,0.012984692,-15.163055,-28.59647,-12.20845
674187346581978,0.05985247,8.180635,6.404214,-0.043337032,-0.2847985,0.018482476,-15.163055,-28.59647,-12.20845
674187350324478,0.10294625,8.195,6.351544,-0.043337032,-0.2847985,0.018482476,-15.163055,-28.59647,-12.20845
674187349076978,0.10294625,8.195,6.351544,-0.043947898,-0.30129185,0.025812853,-15.163055,-28.59647,-12.20845
674187352819426,0.15082821,8.2045765,6.322815,-0.043947898,-0.30129185,0.025812853,-15.163055,-28.59647,-12.20845
674187351571926,0.15082821,8.2045765,6.322815,-0.04516963,-0.32083952,0.028256312,-15.163055,-28.59647,-12.20845
674187351977863,0.15082821,8.2045765,6.322815,-0.04516963,-0.32083952,0.028256312,-14.903511,-30.458248,-11.750919
674187354066873,0.15082821,8.2045765,6.322815,-0.047613084,-0.33550027,0.030088905,-14.903511,-30.458248,-11.750919
674187355314373,0.17476921,8.214153,6.306056,-0.047613084,-0.33550027,0.030088905,-14.903511,-30.458248,-11.750919
674187356561873,0.17476921,8.214153,6.306056,-0.050056547,-0.34466323,0.033754095,-14.903511,-30.458248,-11.750919
674187357809373,0.2034984,8.216547,6.2725387,-0.050056547,-0.34466323,0.033754095,-14.903511,-30.458248,-11.750919
674187359056821,0.2034984,8.216547,6.2725387,-0.053721733,-0.35871312,0.032532364,-14.903511,-30.458248,-11.750919
674187360304321,0.22983348,8.218941,6.2438097,-0.053721733,-0.35871312,0.032532364,-14.903511,-30.458248,-11.750919
674187362799269,0.24898626,8.20697,6.210292,-0.053721733,-0.35871312,0.032532364,-14.903511,-30.458248,-11.750919
674187361551769,0.24898626,8.20697,6.210292,-0.059830382,-0.36909783,0.036808416,-14.903511,-30.458248,-11.750919
674187361978957,0.24898626,8.20697,6.210292,-0.059830382,-0.36909783,0.036808416,-17.913967,-29.39441,-10.95229
674187364046769,0.24898626,8.20697,6.210292,-0.065328166,-0.37703907,0.038641013,-17.913967,-29.39441,-10.95229
674187365294269,0.27292725,8.2045765,6.1743803,-0.065328166,-0.37703907,0.038641013,-17.913967,-29.39441,-10.95229
674187366541717,0.27292725,8.2045765,6.1743803,-0.06899335,-0.38253686,0.036808416,-17.913967,-29.39441,-10.95229
674187367789217,0.30644462,8.223729,6.1193166,-0.06899335,-0.38253686,0.036808416,-17.913967,-29.39441,-10.95229
674187370284165,0.35432664,8.230911,6.0929813,-0.06899335,-0.38253686,0.036808416,-17.913967,-29.39441,-10.95229
674187369036665,0.35432664,8.230911,6.0929813,-0.076323725,-0.3868129,0.037419282,-17.913967,-29.39441,-10.95229
674187371531665,0.35432664,8.230911,6.0929813,-0.08121064,-0.39231068,0.034975823,-17.913967,-29.39441,-10.95229
674187372779165,0.38544992,8.245276,6.0690403,-0.08121064,-0.39231068,0.034975823,-17.913967,-29.39441,-10.95229
674187371991978,0.38544992,8.245276,6.0690403,-0.08121064,-0.39231068,0.034975823,-15.667776,-30.475937,-12.204823
674187375274113,0.4213614,8.266823,6.035523,-0.08121064,-0.39231068,0.034975823,-15.667776,-30.475937,-12.204823
674187374026613,0.4213614,8.266823,6.035523,-0.08609756,-0.39658675,0.032532364,-15.667776,-30.475937,-12.204823
674187376521561,0.4213614,8.266823,6.035523,-0.09464967,-0.40025192,0.030088905,-15.667776,-30.475937,-12.204823
674187377769061,0.45009056,8.278793,6.013976,-0.09464967,-0.40025192,0.030088905,-15.667776,-30.475937,-12.204823
674187379016509,0.45009056,8.278793,6.013976,-0.098925725,-0.39964107,0.023369394,-15.667776,-30.475937,-12.204823
674187380264009,0.48121384,8.278793,6.0043993,-0.098925725,-0.39964107,0.023369394,-15.667776,-30.475937,-12.204823
674187382759009,0.47403157,8.285976,6.011582,-0.098925725,-0.39964107,0.023369394,-15.667776,-30.475937,-12.204823
674187381511509,0.47403157,8.285976,6.011582,-0.10381264,-0.39658675,0.016649883,-15.667776,-30.475937,-12.204823
674187381979790,0.47403157,8.285976,6.011582,-0.10381264,-0.39658675,0.016649883,-15.192575,-29.745586,-12.208931
674187385253957,0.46206108,8.283582,6.0283403,-0.10381264,-0.39658675,0.016649883,-15.192575,-29.745586,-12.208931
674187384006457,0.46206108,8.283582,6.0283403,-0.108088695,-0.3904781,0.012984692,-15.192575,-29.745586,-12.208931
674187387748905,0.45248467,8.285976,6.0714345,-0.108088695,-0.3904781,0.012984692,-15.192575,-29.745586,-12.208931
674187386501405,0.45248467,8.285976,6.0714345,-0.11358648,-0.37887165,0.008097775,-15.192575,-29.745586,-12.208931
674187388996405,0.45248467,8.285976,6.0714345,-0.118473396,-0.36665437,0.0025999928,-15.192575,-29.745586,-12.208931
674187390243905,0.45487875,8.28837,6.10974,-0.118473396,-0.36665437,0.0025999928,-15.192575,-29.745586,-12.208931
674187391491353,0.45487875,8.28837,6.10974,-0.120305985,-0.3538262,-0.0053412486,-15.192575,-29.745586,-12.208931
674187392738853,0.44051415,8.302734,6.1432576,-0.120305985,-0.3538262,-0.0053412486,-15.192575,-29.745586,-12.208931
674187391977967,0.44051415,8.302734,6.1432576,-0.120305985,-0.3538262,-0.0053412486,-17.062191,-31.812843,-10.808384
674187393986301,0.44051415,8.302734,6.1432576,-0.11969513,-0.3385546,-0.009617302,-17.062191,-31.812843,-10.808384
674187395233801,0.3998145,8.321887,6.1743803,-0.11969513,-0.3385546,-0.009617302,-17.062191,-31.812843,-10.808384
674187396481301,0.3998145,8.321887,6.1743803,-0.11969513,-0.32389385,-0.013893355,-17.062191,-31.812843,-10.808384
674187397728801,0.3830558,8.326675,6.1983213,-0.11969513,-0.32389385,-0.013893355,-17.062191,-31.812843,-10.808384
674187400223748,0.3998145,8.338646,6.205504,-0.11969513,-0.32389385,-0.013893355,-17.062191,-31.812843,-10.808384
674187398976248,0.3998145,8.338646,6.205504,-0.11602993,-0.31167653,-0.016336814,-17.062191,-31.812843,-10.808384
674187402718696,0.39502627,8.350616,6.210292,-0.11602993,-0.31167653,-0.016336814,-17.062191,-31.812843,-10.808384
674187401471196,0.39502627,8.350616,6.210292,-0.109310426,-0.3037353,-0.020002002,-17.062191,-31.812843,-10.808384
674187402002551,0.39502627,8.350616,6.210292,-0.109310426,-0.3037353,-0.020002002,-16.264042,-30.35619,-10.815132
674187403966196,0.39502627,8.350616,6.210292,-0.10320178,-0.2896854,-0.024888918,-16.264042,-30.35619,-10.815132
674187405213696,0.411785,8.355405,6.2198687,-0.10320178,-0.2896854,-0.024888918,-16.264042,-30.35619,-10.815132
674187407708644,0.4165732,8.369769,6.234233,-0.10320178,-0.2896854,-0.024888918,-16.264042,-30.35619,-10.815132
674187406461144,0.4165732,8.369769,6.234233,-0.09342794,-0.2811333,-0.029775836,-16.264042,-30.35619,-10.815132
674187410203592,0.44051415,8.360193,6.25578,-0.09342794,-0.2811333,-0.029775836,-16.264042,-30.35619,-10.815132
674187408956092,0.44051415,8.360193,6.25578,-0.085486695,-0.268916,-0.031608433,-16.264042,-30.35619,-10.815132
674187412698540,0.44530237,8.336252,6.2438097,-0.085486695,-0.268916,-0.031608433,-16.264042,-30.35619,-10.815132
674187411451040,0.44530237,8.336252,6.2438097,-0.07082595,-0.2585313,-0.037106212,-16.264042,-30.35619,-10.815132
674187411984113,0.44530237,8.336252,6.2438097,-0.07082595,-0.2585313,-0.037106212,-17.788551,-30.394981,-11.107933
674187415193540,0.46445516,8.343434,6.2390213,-0.07082595,-0.2585313,-0.037106212,-17.788551,-30.394981,-11.107933
674187413946040,0.46445516,8.343434,6.2390213,-0.061662972,-0.24203795,-0.04443659,-17.788551,-30.394981,-11.107933
674187416440988,0.46445516,8.343434,6.2390213,-0.050056547,-0.22920981,-0.049323507,-17.788551,-30.394981,-11.107933
674187417688488,0.47642565,8.333858,6.231839,-0.050056547,-0.22920981,-0.049323507,-17.788551,-30.394981,-11.107933
674187420183436,0.47642565,8.331464,6.229445,-0.050056547,-0.22920981,-0.049323507,-17.788551,-30.394981,-11.107933
674187418935936,0.47642565,8.331464,6.229445,-0.038450114,-0.21149473,-0.054210424,-17.788551,-30.394981,-11.107933
674187421430936,0.47642565,8.331464,6.229445,-0.026843686,-0.19744484,-0.059708208,-17.788551,-30.394981,-11.107933
674187422678436,0.5003666,8.312311,6.205504,-0.026843686,-0.19744484,-0.059708208,-17.788551,-30.394981,-11.107933
674187422014269,0.5003666,8.312311,6.205504,-0.026843686,-0.19744484,-0.059708208,-15.9457855,-29.772675,-10.9715805
674187425173384,0.51233715,8.297947,6.16241,-0.026843686,-0.19744484,-0.059708208,-15.9457855,-29.772675,-10.9715805
674187423925884,0.51233715,8.297947,6.16241,-0.019513309,-0.18339495,-0.06520599,-15.9457855,-29.772675,-10.9715805
674187427668332,0.5386722,8.295552,6.1264987,-0.019513309,-0.18339495,-0.06520599,-15.9457855,-29.772675,-10.9715805
674187426420832,0.5386722,8.295552,6.1264987,-0.008517744,-0.16934507,-0.070703775,-15.9457855,-29.772675,-10.9715805
674187430163332,0.533884,8.290764,6.0714345,-0.008517744,-0.16934507,-0.070703775,-15.9457855,-29.772675,-10.9715805
674187428915832,0.533884,8.290764,6.0714345,0.002477821,-0.15773863,-0.07925588,-15.9457855,-29.772675,-10.9715805
674187431410780,0.533884,8.290764,6.0714345,0.011640792,-0.15224084,-0.08536453,-15.9457855,-29.772675,-10.9715805
674187432658280,0.55543095,8.2764,5.9948235,0.011640792,-0.15224084,-0.08536453,-15.9457855,-29.772675,-10.9715805
674187432014269,0.55543095,8.2764,5.9948235,0.011640792,-0.15224084,-0.08536453,-17.027302,-30.374733,-11.11528
674187433905728,0.55543095,8.2764,5.9948235,0.017138574,-0.14857566,-0.09330577,-17.027302,-30.374733,-11.11528
674187435153228,0.5721896,8.269217,5.934971,0.017138574,-0.14857566,-0.09330577,-17.027302,-30.374733,-11.11528
674187436400728,0.5721896,8.269217,5.934971,0.018971168,-0.14552134,-0.09758182,-17.027302,-30.374733,-11.11528
674187437648228,0.5721896,8.257247,5.8751187,0.018971168,-0.14552134,-0.09758182,-17.027302,-30.374733,-11.11528
674187438895676,0.5721896,8.257247,5.8751187,0.023247221,-0.14307788,-0.10796652,-17.027302,-30.374733,-11.11528
674187440143176,0.58416015,8.230911,5.8248425,0.023247221,-0.14307788,-0.10796652,-17.027302,-30.374733,-11.11528
674187441390623,0.58416015,8.230911,5.8248425,0.02813414,-0.1357475,-0.117740355,-17.027302,-30.374733,-11.11528
674187442638123,0.581766,8.216547,5.7865367,0.02813414,-0.1357475,-0.117740355,-17.027302,-30.374733,-11.11528
674187441992342,0.581766,8.216547,5.7865367,0.02813414,-0.1357475,-0.117740355,-16.436405,-30.783466,-12.19759
674187443885623,0.581766,8.216547,5.7865367,0.02813414,-0.13086058,-0.123849005,-16.436405,-30.783466,-12.19759
674187445133123,0.5721896,8.197394,5.7578077,0.02813414,-0.13086058,-0.123849005,-16.436405,-30.783466,-12.19759
674187446380571,0.5721896,8.197394,5.7578077,0.02569068,-0.12658453,-0.13667718,-16.436405,-30.783466,-12.19759
674187447628071,0.57937187,8.192606,5.717108,0.02569068,-0.12658453,-0.13667718,-16.436405,-30.783466,-12.19759
674187450123019,0.56740135,8.168665,5.6572556,0.02569068,-0.12658453,-0.13667718,-16.436405,-30.783466,-12.19759
674187448875519,0.56740135,8.168665,5.6572556,0.026301544,-0.12047589,-0.14217496,-16.436405,-30.783466,-12.19759
674187452618019,0.5626132,8.161483,5.61895,0.026301544,-0.12047589,-0.14217496,-16.436405,-30.783466,-12.19759
674187451370519,0.5626132,8.161483,5.61895,0.023858085,-0.11925416,-0.14767274,-16.436405,-30.783466,-12.19759
674187451978592,0.5626132,8.161483,5.61895,0.023858085,-0.11925416,-0.14767274,-16.424002,-30.500462,-11.428722
674187453865467,0.5626132,8.161483,5.61895,0.021414626,-0.11558896,-0.15622485,-16.424002,-30.500462,-11.428722
674187455112967,0.55543095,8.159088,5.571068,0.021414626,-0.11558896,-0.15622485,-16.424002,-30.500462,-11.428722
674187456360415,0.55543095,8.159088,5.571068,0.0122516565,-0.11192378,-0.16355522,-16.424002,-30.500462,-11.428722
674187457607915,0.5386722,8.154301,5.523186,0.0122516565,-0.11192378,-0.16355522,-16.424002,-30.500462,-11.428722
674187458855363,0.5386722,8.154301,5.523186,0.006753874,-0.10825859,-0.16966386,-16.424002,-30.500462,-11.428722
674187460102863,0.51712537,8.159088,5.4968505,0.006753874,-0.10825859,-0.16966386,-16.424002,-30.500462,-11.428722
674187462597863,0.5219135,8.149512,5.4729095,0.006753874,-0.10825859,-0.16966386,-16.424002,-30.500462,-11.428722
674187461350363,0.5219135,8.149512,5.4729095,3.4362078E-5,-0.10337167,-0.17455079,-16.424002,-30.500462,-11.428722
674187461979530,0.5219135,8.149512,5.4729095,3.4362078E-5,-0.10337167,-0.17455079,-16.424002,-30.500462,-11.428722
674187463845311,0.5219135,8.149512,5.4729095,-0.009739473,-0.098484755,-0.17821597,-16.424002,-30.500462,-11.428722
674187465092811,0.48839617,8.166271,5.4441805,-0.009739473,-0.098484755,-0.17821597,-16.424002,-30.500462,-11.428722
674187467587759,0.47642565,8.173453,5.427422,-0.009739473,-0.098484755,-0.17821597,-16.424002,-30.500462,-11.428722
674187466340259,0.47642565,8.173453,5.427422,-0.01706985,-0.08810005,-0.18249202,-16.424002,-30.500462,-11.428722
674187470082759,0.47163746,8.161483,5.3915105,-0.01706985,-0.08810005,-0.18249202,-16.424002,-30.500462,-11.428722
674187468835259,0.47163746,8.161483,5.3915105,-0.028065413,-0.08443487,-0.18615721,-16.424002,-30.500462,-11.428722
674187471330207,0.47163746,8.161483,5.3915105,-0.036006656,-0.07893708,-0.18860067,-16.424002,-30.500462,-11.428722
674187472577707,0.43572596,8.135147,5.3412347,-0.036006656,-0.07893708,-0.18860067,-16.424002,-30.500462,-11.428722
674187471985415,0.43572596,8.135147,5.3412347,-0.036006656,-0.07893708,-0.18860067,-15.484343,-29.61774,-10.822182
674187473825155,0.43572596,8.135147,5.3412347,-0.047613084,-0.074050166,-0.1879898,-15.484343,-29.61774,-10.822182
674187475072655,0.39502627,8.092054,5.2933526,-0.047613084,-0.074050166,-0.1879898,-15.484343,-29.61774,-10.822182
674187476320155,0.39502627,8.092054,5.2933526,-0.05860865,-0.07221757,-0.18371375,-15.484343,-29.61774,-10.822182
674187477567655,0.3662971,8.0345955,5.257441,-0.05860865,-0.07221757,-0.18371375,-15.484343,-29.61774,-10.822182
674187478815103,0.3662971,8.0345955,5.257441,-0.06777162,-0.0734393,-0.1812703,-15.484343,-29.61774,-10.822182
674187480062603,0.32559744,7.9843197,5.2335,-0.06777162,-0.0734393,-0.1812703,-15.484343,-29.61774,-10.822182
674187481310051,0.32559744,7.9843197,5.2335,-0.08182151,-0.06855238,-0.17638338,-15.484343,-29.61774,-10.822182
674187482557551,0.30165642,7.9388313,5.214347,-0.08182151,-0.06855238,-0.17638338,-15.484343,-29.61774,-10.822182
674187481981144,0.30165642,7.9388313,5.214347,-0.08182151,-0.06855238,-0.17638338,-17.163786,-29.805073,-10.95982
674187483805051,0.30165642,7.9388313,5.214347,-0.09709313,-0.063665465,-0.17149647,-17.163786,-29.805073,-10.95982
674187485052551,0.27532133,7.8861613,5.207165,-0.09709313,-0.063665465,-0.17149647,-17.163786,-29.805073,-10.95982
674187486299998,0.27532133,7.8861613,5.207165,-0.11236475,-0.052669898,-0.16294435,-17.163786,-29.805073,-10.95982
674187487547498,0.25856268,7.8478556,5.2430763,-0.11236475,-0.052669898,-0.16294435,-17.163786,-29.805073,-10.95982
674187488794946,0.25856268,7.8478556,5.2430763,-0.12763636,-0.038009144,-0.15500312,-17.163786,-29.805073,-10.95982
674187490042446,0.25616857,7.8382797,5.2765937,-0.12763636,-0.038009144,-0.15500312,-17.163786,-29.805073,-10.95982
674187491289946,0.25616857,7.8382797,5.2765937,-0.14107539,-0.016628882,-0.1482836,-17.163786,-29.805073,-10.95982
674187492537446,0.27053314,7.807156,5.336446,-0.14107539,-0.016628882,-0.1482836,-17.163786,-29.805073,-10.95982
674187491984321,0.27053314,7.807156,5.336446,-0.14107539,-0.016628882,-0.1482836,-15.1919155,-30.039711,-10.97905
674187493784894,0.27053314,7.807156,5.336446,-0.16062306,0.01208176,-0.1397315,-15.1919155,-30.039711,-10.97905
674187495032394,0.29686826,7.807156,5.384328,-0.16062306,0.01208176,-0.1397315,-15.1919155,-30.039711,-10.97905
674187496279842,0.29686826,7.807156,5.384328,-0.17161863,0.039570674,-0.13362284,-15.1919155,-30.039711,-10.97905
674187497527342,0.33756793,7.807156,5.456151,-0.17161863,0.039570674,-0.13362284,-15.1919155,-30.039711,-10.97905
674187500022290,0.38544992,7.8215203,5.5207915,-0.17161863,0.039570674,-0.13362284,-15.1919155,-30.039711,-10.97905
674187498774790,0.38544992,7.8215203,5.5207915,-0.18383592,0.068281315,-0.12873593,-15.1919155,-30.039711,-10.97905
674187501269790,0.38544992,7.8215203,5.5207915,-0.19483149,0.095770225,-0.12568161,-15.1919155,-30.039711,-10.97905
674187502517290,0.43812007,7.80955,5.5854325,-0.19483149,0.095770225,-0.12568161,-15.1919155,-30.039711,-10.97905
674187501981248,0.43812007,7.80955,5.5854325,-0.19483149,0.095770225,-0.12568161,-15.202986,-30.470627,-10.979229
674187503764738,0.43812007,7.80955,5.5854325,-0.20216186,0.1275352,-0.12445987,-15.202986,-30.470627,-10.979229
674187505012238,0.48839617,7.7903976,5.6572556,-0.20216186,0.1275352,-0.12445987,-15.202986,-30.470627,-10.979229
674187507507186,0.5410663,7.7473035,5.721896,-0.20216186,0.1275352,-0.12445987,-15.202986,-30.470627,-10.979229
674187506259686,0.5410663,7.7473035,5.721896,-0.20643792,0.1531915,-0.123849005,-15.202986,-30.470627,-10.979229
674187508754686,0.5410663,7.7473035,5.721896,-0.20765965,0.18190216,-0.12690333,-15.202986,-30.470627,-10.979229
674187510002186,0.5745837,7.7185745,5.8032956,-0.20765965,0.18190216,-0.12690333,-15.202986,-30.470627,-10.979229
674187512497134,0.60331285,7.685057,5.9086356,-0.20765965,0.18190216,-0.12690333,-15.202986,-30.470627,-10.979229
674187511249634,0.60331285,7.685057,5.9086356,-0.20765965,0.21427798,-0.12934679,-15.202986,-30.470627,-10.979229
674187511984686,0.60331285,7.685057,5.9086356,-0.20765965,0.21427798,-0.12934679,-15.536676,-31.77491,-10.361832
674187513744582,0.60331285,7.685057,5.9086356,-0.20399445,0.24237776,-0.1360663,-15.536676,-31.77491,-10.361832
674187514992082,0.61288923,7.656328,6.011582,-0.20399445,0.24237776,-0.1360663,-15.536676,-31.77491,-10.361832
674187516239582,0.61288923,7.656328,6.011582,-0.20155099,0.27597532,-0.1446184,-15.536676,-31.77491,-10.361832
674187517487082,0.6344362,7.618022,6.1169224,-0.20155099,0.27597532,-0.1446184,-15.536676,-31.77491,-10.361832
674187519982030,0.66077125,7.594081,6.207898,-0.20155099,0.27597532,-0.1446184,-15.536676,-31.77491,-10.361832
674187518734530,0.66077125,7.594081,6.207898,-0.19544235,0.3077403,-0.1568357,-15.536676,-31.77491,-10.361832
674187521229478,0.66077125,7.594081,6.207898,-0.18689024,0.3382835,-0.16966386,-15.536676,-31.77491,-10.361832
674187522476978,0.6655594,7.589293,6.2892976,-0.18689024,0.3382835,-0.16966386,-15.536676,-31.77491,-10.361832
674187521984373,0.6655594,7.589293,6.2892976,-0.18689024,0.3382835,-0.16966386,-15.827751,-31.060532,-11.127342
674187523724478,0.6655594,7.589293,6.2892976,-0.17772727,0.3645507,-0.18371375,-15.827751,-31.060532,-11.127342
674187524971978,0.6871063,7.5749283,6.356332,-0.17772727,0.3645507,-0.18371375,-15.827751,-31.060532,-11.127342
674187526219426,0.6871063,7.5749283,6.356332,-0.1667317,0.3871527,-0.20203969,-15.827751,-31.060532,-11.127342
674187527466926,0.72062373,7.5773225,6.394638,-0.1667317,0.3871527,-0.20203969,-15.827751,-31.060532,-11.127342
674187528714373,0.72062373,7.5773225,6.394638,-0.156347,0.39998087,-0.22036564,-15.827751,-31.060532,-11.127342
674187529961873,0.7445647,7.589293,6.4185786,-0.156347,0.39998087,-0.22036564,-15.827751,-31.060532,-11.127342
674187531209373,0.7445647,7.589293,6.4185786,-0.14107539,0.40670037,-0.23930244,-15.827751,-31.060532,-11.127342
674187532456873,0.751747,7.6060514,6.425761,-0.14107539,0.40670037,-0.23930244,-15.827751,-31.060532,-11.127342
674187531984946,0.751747,7.6060514,6.425761,-0.14107539,0.40670037,-0.23930244,-16.244932,-29.93211,-9.584953
674187533704321,0.751747,7.6060514,6.425761,-0.1270255,0.40731123,-0.2625153,-16.244932,-29.93211,-9.584953
674187534951821,0.7589293,7.6204166,6.4377313,-0.1270255,0.40731123,-0.2625153,-16.244932,-29.93211,-9.584953
674187537446769,0.7373824,7.637175,6.4353375,-0.1270255,0.40731123,-0.2625153,-16.244932,-29.93211,-9.584953
674187536199269,0.7373824,7.637175,6.4353375,-0.11297561,0.39814827,-0.27900866,-16.244932,-29.93211,-9.584953
674187538694269,0.7373824,7.637175,6.4353375,-0.098925725,0.38837442,-0.3022215,-16.244932,-29.93211,-9.584953
674187539941769,0.7158355,7.656328,6.4425197,-0.098925725,0.38837442,-0.3022215,-16.244932,-29.93211,-9.584953
674187541189217,0.7158355,7.656328,6.4425197,-0.08426497,0.3731028,-0.32360178,-16.244932,-29.93211,-9.584953
674187542436717,0.67513585,7.6706924,6.452096,-0.08426497,0.3731028,-0.32360178,-16.244932,-29.93211,-9.584953
674187541977863,0.67513585,7.6706924,6.452096,-0.08426497,0.3731028,-0.32360178,-16.591354,-31.372337,-10.35136
674187543684165,0.67513585,7.6706924,6.452096,-0.06899335,0.354166,-0.34498203,-16.591354,-31.372337,-10.35136
674187544931665,0.6272539,7.6754804,6.449702,-0.06899335,0.354166,-0.34498203,-16.591354,-31.372337,-10.35136
674187546179165,0.6272539,7.6754804,6.449702,-0.0543326,0.33217487,-0.36208627,-16.591354,-31.372337,-10.35136
674187547426665,0.55064267,7.66351,6.449702,-0.0543326,0.33217487,-0.36208627,-16.591354,-31.372337,-10.35136
674187548674113,0.55064267,7.66351,6.449702,-0.044558764,0.30957288,-0.37613615,-16.591354,-31.372337,-10.35136
674187549921613,0.46445516,7.665904,6.428155,-0.044558764,0.30957288,-0.37613615,-16.591354,-31.372337,-10.35136
674187552416561,0.35432664,7.665904,6.428155,-0.044558764,0.30957288,-0.37613615,-16.591354,-31.372337,-10.35136
674187551169061,0.35432664,7.665904,6.428155,-0.033563197,0.2814731,-0.38957515,-16.591354,-31.372337,-10.35136
674187551978280,0.35432664,7.665904,6.428155,-0.033563197,0.2814731,-0.38957515,-14.922306,-31.469715,-10.675091
674187553664009,0.35432664,7.665904,6.428155,-0.020735038,0.25826025,-0.399349,-14.922306,-31.469715,-10.675091
674187554911509,0.24659218,7.634781,6.4377313,-0.020735038,0.25826025,-0.399349,-14.922306,-31.469715,-10.675091
674187556159009,0.24659218,7.634781,6.4377313,-0.008517744,0.2332148,-0.4060685,-14.922306,-31.469715,-10.675091
674187557406509,0.12688723,7.632387,6.4401255,-0.008517744,0.2332148,-0.4060685,-14.922306,-31.469715,-10.675091
674187558653957,0.12688723,7.632387,6.4401255,0.004310415,0.20755847,-0.40851197,-14.922306,-31.469715,-10.675091
674187559901457,0.016758692,7.634781,6.4161844,0.004310415,0.20755847,-0.40851197,-14.922306,-31.469715,-10.675091
674187562396405,-0.08858166,7.6275983,6.3826675,0.004310415,0.20755847,-0.40851197,-14.922306,-31.469715,-10.675091
674187561148905,-0.08858166,7.6275983,6.3826675,0.013473386,0.1794587,-0.4097337,-14.922306,-31.469715,-10.675091
674187561977967,-0.08858166,7.6275983,6.3826675,0.013473386,0.1794587,-0.4097337,-17.3234,-29.656082,-12.649544
674187563643905,-0.08858166,7.6275983,6.3826675,0.025079817,0.15441324,-0.40240332,-17.3234,-29.656082,-12.649544
674187564891405,-0.1963161,7.615628,6.373091,0.025079817,0.15441324,-0.40240332,-17.3234,-29.656082,-12.649544
674187566138853,-0.1963161,7.615628,6.373091,0.034242786,0.1324221,-0.39629468,-17.3234,-29.656082,-12.649544
674187567386353,-0.29686826,7.615628,6.356332,0.034242786,0.1324221,-0.39629468,-17.3234,-29.656082,-12.649544
674187568633801,-0.29686826,7.615628,6.356332,0.04646008,0.11287444,-0.38835344,-17.3234,-29.656082,-12.649544
674187569881301,-0.4022086,7.637175,6.351544,0.04646008,0.11287444,-0.38835344,-17.3234,-29.656082,-12.649544
674187571128801,-0.4022086,7.637175,6.351544,0.053790458,0.096991956,-0.37796873,-17.3234,-29.656082,-12.649544
674187572376301,-0.51712537,7.634781,6.3611207,0.053790458,0.096991956,-0.37796873,-17.3234,-29.656082,-12.649544
674187571984686,-0.51712537,7.634781,6.3611207,0.053790458,0.096991956,-0.37796873,-14.890432,-30.029045,-11.443241
674187574871248,-0.58655417,7.6491456,6.3395734,0.053790458,0.096991956,-0.37796873,-14.890432,-30.029045,-11.443241
674187573623748,-0.58655417,7.6491456,6.3395734,0.06356429,0.084774666,-0.36208627,-14.890432,-30.029045,-11.443241
674187576118696,-0.58655417,7.6491456,6.3395734,0.07455986,0.07683342,-0.34681463,-14.890432,-30.029045,-11.443241
674187577366196,-0.6631654,7.66351,6.3108444,0.07455986,0.07683342,-0.34681463,-14.890432,-30.029045,-11.443241
674187578613696,-0.6631654,7.66351,6.3108444,0.08005764,0.068281315,-0.3284887,-14.890432,-30.029045,-11.443241
674187579861196,-0.7086533,7.656328,6.2869034,0.08005764,0.068281315,-0.3284887,-14.890432,-30.029045,-11.443241
674187582356144,-0.7661116,7.639569,6.258174,0.08005764,0.068281315,-0.3284887,-14.890432,-30.029045,-11.443241
674187581108644,-0.7661116,7.639569,6.258174,0.08860975,0.060950935,-0.3077193,-14.890432,-30.029045,-11.443241
674187581977811,-0.7661116,7.639569,6.258174,0.08860975,0.060950935,-0.3077193,-15.518227,-31.05671,-10.36153
674187583603592,-0.7661116,7.639569,6.258174,0.0928858,0.060950935,-0.2869499,-15.518227,-31.05671,-10.36153
674187584851092,-0.8211759,7.632387,6.210292,0.0928858,0.060950935,-0.2869499,-15.518227,-31.05671,-10.36153
674187587346092,-0.84511685,7.608446,6.186351,0.0928858,0.060950935,-0.2869499,-15.518227,-31.05671,-10.36153
674187586098592,-0.84511685,7.608446,6.186351,0.10021618,0.0615618,-0.26556963,-15.518227,-31.05671,-10.36153
674187589841040,-0.84511685,7.5964756,6.1671987,0.10021618,0.0615618,-0.26556963,-15.518227,-31.05671,-10.36153
674187588593540,-0.84511685,7.5964756,6.1671987,0.102659635,0.067059584,-0.24113503,-15.518227,-31.05671,-10.36153
674187591088488,-0.84511685,7.5964756,6.1671987,0.10510309,0.07011391,-0.21792218,-15.518227,-31.05671,-10.36153
674187592335988,-0.8403287,7.589293,6.1456513,0.10510309,0.07011391,-0.21792218,-15.518227,-31.05671,-10.36153
674187591984321,-0.8403287,7.589293,6.1456513,0.10510309,0.07011391,-0.21792218,-14.893461,-30.4668,-10.213421
674187593583488,-0.8403287,7.589293,6.1456513,0.105713956,0.07683342,-0.2002071,-14.893461,-30.4668,-10.213421
674187594830988,-0.83075225,7.5964756,6.0977697,0.105713956,0.07683342,-0.2002071,-14.893461,-30.4668,-10.213421
674187596078436,-0.83075225,7.5964756,6.0977697,0.10449223,0.07988775,-0.1794377,-14.893461,-30.4668,-10.213421
674187597325936,-0.8139936,7.591687,6.0283403,0.10449223,0.07988775,-0.1794377,-14.893461,-30.4668,-10.213421
674187598573384,-0.8139936,7.591687,6.0283403,0.10082704,0.08172034,-0.1586683,-14.893461,-30.4668,-10.213421
674187599820884,-0.7828703,7.5964756,5.9517293,0.10082704,0.08172034,-0.1586683,-14.893461,-30.4668,-10.213421
674187601068332,-0.7828703,7.5964756,5.9517293,0.09716185,0.07500083,-0.14217496,-14.893461,-30.4668,-10.213421
674187602315832,-0.7613234,7.5964756,5.896665,0.09716185,0.07500083,-0.14217496,-14.893461,-30.4668,-10.213421
674187601977707,-0.7613234,7.5964756,5.896665,0.09716185,0.07500083,-0.14217496,-15.036982,-29.891163,-11.1342125
674187603563332,-0.7613234,7.5964756,5.896665,0.08983148,0.0737791,-0.12629247,-15.036982,-29.891163,-11.1342125
674187604810832,-0.7445647,7.594081,5.839207,0.08983148,0.0737791,-0.12629247,-15.036982,-29.891163,-11.1342125
674187607305780,-0.72541195,7.567746,5.772172,0.08983148,0.0737791,-0.12629247,-15.036982,-29.891163,-11.1342125
674187606058280,-0.72541195,7.567746,5.772172,0.08127937,0.067059584,-0.10796652,-15.036982,-29.891163,-11.1342125
674187608553228,-0.72541195,7.567746,5.772172,0.07150553,0.057896614,-0.09758182,-15.036982,-29.891163,-11.1342125
674187609800728,-0.68950045,7.5557756,5.7386546,0.07150553,0.057896614,-0.09758182,-15.036982,-29.891163,-11.1342125
674187612295728,-0.6799241,7.5509877,5.700349,0.07150553,0.057896614,-0.09758182,-15.036982,-29.891163,-11.1342125
674187611048228,-0.6799241,7.5509877,5.700349,0.058677375,0.04323586,-0.08536453,-15.036982,-29.891163,-11.1342125
674187611978748,-0.6799241,7.5509877,5.700349,0.058677375,0.04323586,-0.08536453,-13.085239,-30.989342,-10.846302
674187613543176,-0.6799241,7.5509877,5.700349,0.04890354,0.026131649,-0.07131464,-13.085239,-30.989342,-10.846302
674187614790676,-0.66077125,7.5533814,5.654861,0.04890354,0.026131649,-0.07131464,-13.085239,-30.989342,-10.846302
674187616038123,-0.66077125,7.5533814,5.654861,0.036686245,0.005973113,-0.0615408,-13.085239,-30.989342,-10.846302
674187617285623,-0.6272539,7.5557756,5.6117673,0.036686245,0.005973113,-0.0615408,-13.085239,-30.989342,-10.846302
674187619780623,-0.5937365,7.5581694,5.575856,0.036686245,0.005973113,-0.0615408,-13.085239,-30.989342,-10.846302
674187618533123,-0.5937365,7.5581694,5.575856,0.022636358,-0.016018016,-0.052988697,-13.085239,-30.989342,-10.846302
674187621028071,-0.5937365,7.5581694,5.575856,0.008586468,-0.03862001,-0.046269186,-13.085239,-30.989342,-10.846302
674187622275571,-0.5697955,7.565352,5.571068,0.008586468,-0.03862001,-0.046269186,-13.085239,-30.989342,-10.846302
674187621977498,-0.5697955,7.565352,5.571068,0.008586468,-0.03862001,-0.046269186,-15.536318,-31.041317,-13.129032
674187623523019,-0.5697955,7.565352,5.571068,-0.0048525557,-0.063665465,-0.042603996,-15.536318,-31.041317,-13.129032
674187624770519,-0.54824865,7.5797167,5.5447326,-0.0048525557,-0.063665465,-0.042603996,-15.536318,-31.041317,-13.129032
674187626018019,-0.54824865,7.5797167,5.5447326,-0.016458984,-0.085045725,-0.033441026,-15.536318,-31.041317,-13.129032
674187627265519,-0.5290958,7.562958,5.556703,-0.016458984,-0.085045725,-0.033441026,-15.536318,-31.041317,-13.129032
674187628512967,-0.5290958,7.562958,5.556703,-0.030508876,-0.104593396,-0.027332377,-15.536318,-31.041317,-13.129032
674187629760467,-0.49318436,7.5725346,5.5686736,-0.030508876,-0.104593396,-0.027332377,-15.536318,-31.041317,-13.129032
674187631007915,-0.49318436,7.5725346,5.5686736,-0.04150444,-0.12475194,-0.020612866,-15.536318,-31.041317,-13.129032
674187632255415,-0.46206108,7.6060514,5.5830383,-0.04150444,-0.12475194,-0.020612866,-15.536318,-31.041317,-13.129032
674187633502915,-0.46206108,7.6060514,5.5830383,-0.051278275,-0.13941269,-0.014504219,-15.536318,-31.041317,-13.129032
674187634750415,-0.44051415,7.6012635,5.6069794,-0.051278275,-0.13941269,-0.014504219,-15.536318,-31.041317,-13.129032
674187631983957,-0.44051415,7.6012635,5.6069794,-0.051278275,-0.13941269,-0.014504219,-15.221436,-31.188828,-10.97953
674187637245363,-0.411785,7.5988693,5.621344,-0.051278275,-0.13941269,-0.014504219,-15.221436,-31.188828,-10.97953
674187635997863,-0.411785,7.5988693,5.621344,-0.060441248,-0.15285172,-0.0077847075,-15.221436,-31.188828,-10.97953
674187638492811,-0.411785,7.5988693,5.621344,-0.06899335,-0.16140382,-0.004730384,-15.221436,-31.188828,-10.97953
674187639740311,-0.3782676,7.589293,5.6428905,-0.06899335,-0.16140382,-0.004730384,-15.221436,-31.188828,-10.97953
674187640987759,-0.3782676,7.589293,5.6428905,-0.075102,-0.16751246,7.673986E-4,-15.221436,-31.188828,-10.97953
674187642235259,-0.363903,7.61084,5.6859846,-0.075102,-0.16751246,7.673986E-4,-15.221436,-31.188828,-10.97953
674187643482759,-0.363903,7.61084,5.6859846,-0.080599785,-0.1705668,0.006265181,-15.221436,-31.188828,-10.97953
674187644730259,-0.34235612,7.5988693,5.726684,-0.080599785,-0.1705668,0.006265181,-15.221436,-31.188828,-10.97953
674187641977655,-0.34235612,7.5988693,5.726684,-0.080599785,-0.1705668,0.006265181,-15.249935,-31.898476,-12.51733
674187645977707,-0.34235612,7.5988693,5.726684,-0.089762755,-0.17484285,0.009930369,-15.249935,-31.898476,-12.51733
674187647225207,-0.33996204,7.6275983,5.748231,-0.089762755,-0.17484285,0.009930369,-15.249935,-31.898476,-12.51733
674187649720155,-0.32799155,7.656328,5.7625957,-0.089762755,-0.17484285,0.009930369,-15.249935,-31.898476,-12.51733
674187648472655,-0.32799155,7.656328,5.7625957,-0.09342794,-0.1687342,0.014817287,-15.249935,-31.898476,-12.51733
674187650967655,-0.32799155,7.656328,5.7625957,-0.09831486,-0.16629073,0.019093342,-15.249935,-31.898476,-12.51733
674187652215155,-0.32320336,7.6515393,5.793719,-0.09831486,-0.16629073,0.019093342,-15.249935,-31.898476,-12.51733
674187653462603,-0.32320336,7.6515393,5.793719,-0.101980045,-0.16079295,0.019704204,-15.249935,-31.898476,-12.51733
674187651984478,-0.32320336,7.6515393,5.793719,-0.101980045,-0.16079295,0.019704204,-15.849215,-31.776169,-11.588894
674187654710103,-0.31841514,7.661116,5.8272367,-0.101980045,-0.16079295,0.019704204,-15.849215,-31.776169,-11.588894
674187655957551,-0.31841514,7.661116,5.8272367,-0.10259091,-0.15101913,0.022147663,-15.849215,-31.776169,-11.588894
674187657205051,-0.30644462,7.6778746,5.848783,-0.10259091,-0.15101913,0.022147663,-15.849215,-31.776169,-11.588894
674187658452551,-0.30644462,7.6778746,5.848783,-0.10564523,-0.13513663,0.024591122,-15.849215,-31.776169,-11.588894
674187659700051,-0.32080922,7.66351,5.887089,-0.10564523,-0.13513663,0.024591122,-15.849215,-31.776169,-11.588894
674187662194998,-0.32080922,7.656328,5.915818,-0.10564523,-0.13513663,0.024591122,-15.849215,-31.776169,-11.588894
674187660947498,-0.32080922,7.656328,5.915818,-0.10686696,-0.12230848,0.025812853,-15.849215,-31.776169,-11.588894
674187661978332,-0.32080922,7.656328,5.915818,-0.10686696,-0.12230848,0.025812853,-14.728115,-29.593216,-11.598282
674187663442446,-0.32080922,7.656328,5.915818,-0.10564523,-0.10276081,0.028256312,-14.728115,-29.593216,-11.598282
674187664689946,-0.33517382,7.639569,5.944547,-0.10564523,-0.10276081,0.028256312,-14.728115,-29.593216,-11.598282
674187665937446,-0.33517382,7.639569,5.944547,-0.10747783,-0.08871092,0.03314323,-14.728115,-29.593216,-11.598282
674187667184946,-0.33996204,7.6228104,5.992429,-0.10747783,-0.08871092,0.03314323,-14.728115,-29.593216,-11.598282
674187668432394,-0.33996204,7.6228104,5.992429,-0.10686696,-0.06733065,0.034975823,-14.728115,-29.593216,-11.598282
674187669679894,-0.3662971,7.6299925,6.042705,-0.10686696,-0.06733065,0.034975823,-14.728115,-29.593216,-11.598282
674187670927342,-0.3662971,7.6299925,6.042705,-0.101980045,-0.046561256,0.03436496,-14.728115,-29.593216,-11.598282
674187672174842,-0.3615089,7.608446,6.138469,-0.101980045,-0.046561256,0.03436496,-14.728115,-29.593216,-11.598282
674187673422342,-0.3615089,7.608446,6.138469,-0.09709313,-0.022126665,0.038641013,-14.728115,-29.593216,-11.598282
674187674669842,-0.363903,7.6252046,6.2174745,-0.09709313,-0.022126665,0.038641013,-14.728115,-29.593216,-11.598282
674187671984634,-0.363903,7.6252046,6.2174745,-0.09709313,-0.022126665,0.038641013,-14.914927,-31.182434,-10.674973
674187675917290,-0.363903,7.6252046,6.2174745,-0.092817076,-0.0013572639,0.041084472,-14.914927,-31.182434,-10.674973
674187677164790,-0.3758735,7.6515393,6.260568,-0.092817076,-0.0013572639,0.041084472,-14.914927,-31.182434,-10.674973
674187678412238,-0.3758735,7.6515393,6.260568,-0.08854102,0.020633865,0.040473606,-14.914927,-31.182434,-10.674973
674187679659738,-0.3734794,7.661116,6.3132386,-0.08854102,0.020633865,0.040473606,-14.914927,-31.182434,-10.674973
674187682154738,-0.3902381,7.680269,6.380273,-0.08854102,0.020633865,0.040473606,-14.914927,-31.182434,-10.674973
674187680907238,-0.3902381,7.680269,6.380273,-0.082432374,0.040792402,0.042917065,-14.914927,-31.182434,-10.674973
674187683402186,-0.3902381,7.680269,6.380273,-0.07143681,0.0615618,0.042917065,-14.914927,-31.182434,-10.674973
674187681978071,-0.3902381,7.680269,6.380273,-0.07143681,0.0615618,0.042917065,-16.594025,-31.076508,-11.888741
674187684649686,-0.3974204,7.685057,6.4329433,-0.07143681,0.0615618,0.042917065,-16.594025,-31.076508,-11.888741
674187687144634,-0.40460268,7.706604,6.4568844,-0.07143681,0.0615618,0.042917065,-16.594025,-31.076508,-11.888741
674187685897134,-0.40460268,7.706604,6.4568844,-0.061052114,0.07683342,0.041084472,-16.594025,-31.076508,-11.888741
674187689639582,-0.38544992,7.713786,6.4880075,-0.061052114,0.07683342,0.041084472,-16.594025,-31.076508,-11.888741
674187688392082,-0.38544992,7.713786,6.4880075,-0.05066741,0.08843985,0.045360524,-16.594025,-31.076508,-11.888741
674187690887082,-0.38544992,7.713786,6.4880075,-0.04028271,0.095770225,0.04658225,-16.594025,-31.076508,-11.888741
674187692134582,-0.3974204,7.7161803,6.5071607,-0.04028271,0.095770225,0.04658225,-16.594025,-31.076508,-11.888741
674187693382030,-0.3974204,7.7161803,6.5071607,-0.026843686,0.100046284,0.04658225,-16.594025,-31.076508,-11.888741
674187691984582,-0.3974204,7.7161803,6.5071607,-0.026843686,0.100046284,0.04658225,-15.686586,-31.927723,-9.43792
674187694629530,-0.3782676,7.7209687,6.5311017,-0.026843686,0.100046284,0.04658225,-15.686586,-31.927723,-9.43792
674187695876978,-0.3782676,7.7209687,6.5311017,-0.012182932,0.10248974,0.04658225,-15.686586,-31.927723,-9.43792
674187697124478,-0.3471443,7.737727,6.519131,-0.012182932,0.10248974,0.04658225,-15.686586,-31.927723,-9.43792
674187698371978,-0.3471443,7.737727,6.519131,0.0036995504,0.09943542,0.050247442,-15.686586,-31.927723,-9.43792
674187699619478,-0.30165642,7.7520914,6.5047665,0.0036995504,0.09943542,0.050247442,-15.686586,-31.927723,-9.43792
674187700866926,-0.30165642,7.7520914,6.5047665,0.015916845,0.093937635,0.053912632,-15.686586,-31.927723,-9.43792
674187702114426,-0.24180397,7.75688,6.473643,0.015916845,0.093937635,0.053912632,-15.686586,-31.927723,-9.43792
674187704609373,-0.193922,7.785609,6.4425197,0.015916845,0.093937635,0.053912632,-15.686586,-31.927723,-9.43792
674187701981040,-0.193922,7.785609,6.4425197,0.015916845,0.093937635,0.053912632,-15.821705,-30.625336,-11.895912
674187703361873,-0.193922,7.785609,6.4425197,0.029966734,0.0841638,0.05513436,-15.821705,-30.625336,-11.895912
674187705856873,-0.193922,7.785609,6.4425197,0.041573163,0.074389964,0.05513436,-15.821705,-30.625336,-11.895912
674187707104373,-0.13167544,7.7903976,6.404214,0.041573163,0.074389964,0.05513436,-15.821705,-30.625336,-11.895912
674187708351821,-0.13167544,7.7903976,6.404214,0.05012527,0.06278353,0.052080035,-15.821705,-30.625336,-11.895912
674187709599321,-0.076611154,7.785609,6.351544,0.05012527,0.06278353,0.052080035,-15.821705,-30.625336,-11.895912
674187712094269,-0.04069968,7.7736387,6.282115,0.05012527,0.06278353,0.052080035,-15.821705,-30.625336,-11.895912
674187710846769,-0.04069968,7.7736387,6.282115,0.057455644,0.051787965,0.04841485,-15.821705,-30.625336,-11.895912
674187713341769,-0.04069968,7.7736387,6.282115,0.06234256,0.036516346,0.045360524,-15.821705,-30.625336,-11.895912
674187711984269,-0.04069968,7.7736387,6.282115,0.06234256,0.036516346,0.045360524,-14.144613,-30.729557,-10.989639
674187714589269,-0.009576394,7.761668,6.227051,0.06234256,0.036516346,0.045360524,-14.144613,-30.729557,-10.989639
674187715836717,-0.009576394,7.761668,6.227051,0.06295343,0.021855596,0.044138797,-14.144613,-30.729557,-10.989639
674187717084217,0.019152788,7.7473035,6.179169,0.06295343,0.021855596,0.044138797,-14.144613,-30.729557,-10.989639
674187718331665,0.019152788,7.7473035,6.179169,0.05928824,0.011470895,0.032532364,-14.144613,-30.729557,-10.989639
674187719579165,0.023940988,7.728151,6.131287,0.05928824,0.011470895,0.032532364,-14.144613,-30.729557,-10.989639
674187720826665,0.023940988,7.728151,6.131287,0.05562305,4.7533028E-4,0.02703458,-14.144613,-30.729557,-10.989639
674187722074165,0.033517383,7.706604,6.1001635,0.05562305,4.7533028E-4,0.02703458,-14.144613,-30.729557,-10.989639
674187724569113,0.031123282,7.6754804,6.0738287,0.05562305,4.7533028E-4,0.02703458,-14.144613,-30.729557,-10.989639
674187721978905,0.031123282,7.6754804,6.0738287,0.05562305,4.7533028E-4,0.02703458,-16.593004,-30.63704,-13.426064
674187723321613,0.031123282,7.6754804,6.0738287,0.051347,-0.009298505,0.019093342,-16.593004,-30.63704,-13.426064
674187727064061,0.016758692,7.661116,6.061858,0.051347,-0.009298505,0.019093342,-16.593004,-30.63704,-13.426064
674187725816561,0.016758692,7.661116,6.061858,0.039129704,-0.023348393,0.012373828,-16.593004,-30.63704,-13.426064
674187729559061,-0.011970494,7.639569,6.061858,0.039129704,-0.023348393,0.012373828,-16.593004,-30.63704,-13.426064
674187728311561,-0.011970494,7.639569,6.061858,0.030577598,-0.028846176,0.001989128,-16.593004,-30.63704,-13.426064
674187732054009,-0.033517383,7.632387,6.064252,0.030577598,-0.028846176,0.001989128,-16.593004,-30.63704,-13.426064
674187730806509,-0.033517383,7.632387,6.064252,0.023247221,-0.034343958,-0.011449896,-16.593004,-30.63704,-13.426064
674187733301457,-0.033517383,7.632387,6.064252,0.016527709,-0.03984174,-0.019391138,-16.593004,-30.63704,-13.426064
674187734548957,-0.074217066,7.634781,6.0953755,0.016527709,-0.03984174,-0.019391138,-16.593004,-30.63704,-13.426064
674187731984373,-0.074217066,7.634781,6.0953755,0.016527709,-0.03984174,-0.019391138,-15.061476,-31.04456,-10.365944
674187737043905,-0.10534035,7.6228104,6.131287,0.016527709,-0.03984174,-0.019391138,-15.061476,-31.04456,-10.365944
674187735796405,-0.10534035,7.6228104,6.131287,0.008586468,-0.044117793,-0.029775836,-15.061476,-31.04456,-10.365944
674187738291405,-0.10534035,7.6228104,6.131287,6.452268E-4,-0.053280763,-0.035884485,-15.061476,-31.04456,-10.365944
674187739538905,-0.14604004,7.6204166,6.16241,6.452268E-4,-0.053280763,-0.035884485,-15.061476,-31.04456,-10.365944
674187742033853,-0.1963161,7.6228104,6.1983213,6.452268E-4,-0.053280763,-0.035884485,-15.061476,-31.04456,-10.365944
674187740786353,-0.1963161,7.6228104,6.1983213,-0.0030199615,-0.05572422,-0.04199313,-15.061476,-31.04456,-10.365944
674187743281301,-0.1963161,7.6228104,6.1983213,-0.0048525557,-0.061222002,-0.045047455,-15.061476,-31.04456,-10.365944
674187741978592,-0.1963161,7.6228104,6.1983213,-0.0048525557,-0.061222002,-0.045047455,-15.066845,-31.333546,-10.058563
674187744528801,-0.24419808,7.6228104,6.231839,-0.0048525557,-0.061222002,-0.045047455,-15.066845,-31.333546,-10.058563
674187745776301,-0.24419808,7.6228104,6.231839,-0.0024090968,-0.060611144,-0.046269186,-15.066845,-31.333546,-10.058563
674187747023801,-0.28010955,7.6443577,6.2653565,-0.0024090968,-0.060611144,-0.046269186,-15.066845,-31.333546,-10.058563
674187749518748,-0.30644462,7.6682987,6.301268,-0.0024090968,-0.060611144,-0.046269186,-15.066845,-31.333546,-10.058563
674187748271248,-0.30644462,7.6682987,6.301268,-0.0024090968,-0.065498054,-0.04565832,-15.066845,-31.333546,-10.058563
674187752013748,-0.32799155,7.6706924,6.3180265,-0.0024090968,-0.065498054,-0.04565832,-15.066845,-31.333546,-10.058563
674187750766248,-0.32799155,7.6706924,6.3180265,-5.7650264E-4,-0.066719785,-0.04443659,-15.066845,-31.333546,-10.058563
674187753261196,-0.32799155,7.6706924,6.3180265,0.004310415,-0.06916325,-0.04199313,-15.066845,-31.333546,-10.058563
674187754508696,-0.33517382,7.682663,6.34915,0.004310415,-0.06916325,-0.04199313,-15.066845,-31.333546,-10.058563
674187751984426,-0.33517382,7.682663,6.34915,0.004310415,-0.06916325,-0.04199313,-15.473272,-29.186821,-10.822002
674187755756144,-0.33517382,7.682663,6.34915,0.010419062,-0.06916325,-0.040160537,-15.473272,-29.186821,-10.822002
674187757003644,-0.32559744,7.6946335,6.356332,0.010419062,-0.06916325,-0.040160537,-15.473272,-29.186821,-10.822002
674187758251092,-0.32559744,7.6946335,6.356332,0.014084251,-0.066719785,-0.034662753,-15.473272,-29.186821,-10.822002
674187759498592,-0.31362695,7.7233624,6.3611207,0.014084251,-0.066719785,-0.034662753,-15.473272,-29.186821,-10.822002
674187760746092,-0.31362695,7.7233624,6.3611207,0.020803763,-0.063665465,-0.033441026,-15.473272,-29.186821,-10.822002
674187761993592,-0.28968593,7.7449093,6.3635144,0.020803763,-0.063665465,-0.033441026,-15.473272,-29.186821,-10.822002
674187761978332,-0.28968593,7.7449093,6.3635144,0.020803763,-0.063665465,-0.033441026,-17.194641,-30.806278,-11.728989
674187763241040,-0.28968593,7.7449093,6.3635144,0.029355869,-0.061832868,-0.028554108,-17.194641,-30.806278,-11.728989
674187764488540,-0.26574495,7.754486,6.3635144,0.029355869,-0.061832868,-0.028554108,-17.194641,-30.806278,-11.728989
674187765735988,-0.26574495,7.754486,6.3635144,0.033021055,-0.05572422,-0.026721515,-17.194641,-30.806278,-11.728989
674187766983488,-0.25138038,7.783215,6.3419676,0.033021055,-0.05572422,-0.026721515,-17.194641,-30.806278,-11.728989
674187768230988,-0.25138038,7.783215,6.3419676,0.03974057,-0.047172114,-0.022445459,-17.194641,-30.806278,-11.728989
674187769478488,-0.22983348,7.7903976,6.3132386,0.03974057,-0.047172114,-0.022445459,-17.194641,-30.806278,-11.728989
674187770725936,-0.22983348,7.7903976,6.3132386,0.04218403,-0.03984174,-0.019391138,-17.194641,-30.806278,-11.728989
674187771973436,-0.21307479,7.785609,6.301268,0.04218403,-0.03984174,-0.019391138,-17.194641,-30.806278,-11.728989
674187773220884,-0.21307479,7.785609,6.301268,0.044016622,-0.036176555,-0.01694768,-17.194641,-30.806278,-11.728989
674187774468384,-0.17716332,7.778427,6.258174,0.044016622,-0.036176555,-0.01694768,-17.194641,-30.806278,-11.728989
674187771984426,-0.17716332,7.778427,6.258174,0.044016622,-0.036176555,-0.01694768,-14.887417,-30.031609,-10.981991
674187775715884,-0.17716332,7.778427,6.258174,0.044627488,-0.031900503,-0.012671625,-14.887417,-30.031609,-10.981991
674187776963384,-0.16040461,7.7664566,6.227051,0.044627488,-0.031900503,-0.012671625,-14.887417,-30.031609,-10.981991
674187778210832,-0.16040461,7.7664566,6.227051,0.047070947,-0.0215158,-0.01328249,-14.887417,-30.031609,-10.981991
674187779458332,-0.13406953,7.7473035,6.1743803,0.047070947,-0.0215158,-0.01328249,-14.887417,-30.031609,-10.981991
674187780705780,-0.13406953,7.7473035,6.1743803,0.048292674,-0.019683206,-0.010839031,-14.887417,-30.031609,-10.981991
674187781953280,-0.11252264,7.7233624,6.1193166,0.048292674,-0.019683206,-0.010839031,-14.887417,-30.031609,-10.981991
674187783200780,-0.11252264,7.7233624,6.1193166,0.047070947,-0.016018016,-0.0059521133,-14.887417,-30.031609,-10.981991
674187781977551,-0.11252264,7.7233624,6.1193166,0.047070947,-0.016018016,-0.0059521133,-15.071871,-31.32927,-10.827312
674187784448280,-0.09336985,7.713786,6.081011,0.047070947,-0.016018016,-0.0059521133,-15.071871,-31.32927,-10.827312
674187785695728,-0.09336985,7.713786,6.081011,0.044627488,-0.0154071525,-0.0071738428,-15.071871,-31.32927,-10.827312
674187786943228,-0.07182296,7.6922393,6.0259466,0.044627488,-0.0154071525,-0.0071738428,-15.071871,-31.32927,-10.827312
674187789438176,-0.050276075,7.689845,5.985247,0.044627488,-0.0154071525,-0.0071738428,-15.071871,-31.32927,-10.827312
674187788190676,-0.050276075,7.689845,5.985247,0.03974057,-0.014796289,-0.0053412486,-15.071871,-31.32927,-10.827312
674187790685623,-0.050276075,7.689845,5.985247,0.034242786,-0.01235283,-0.004730384,-15.071871,-31.32927,-10.827312
674187791933123,-0.026335087,7.6730866,5.9565177,0.034242786,-0.01235283,-0.004730384,-15.071871,-31.32927,-10.827312
674187793180623,-0.026335087,7.6730866,5.9565177,0.029966734,-0.014796289,-0.0053412486,-15.071871,-31.32927,-10.827312
674187791984113,-0.026335087,7.6730866,5.9565177,0.029966734,-0.014796289,-0.0053412486,-13.851513,-31.005318,-11.607704
674187794428123,0.0023940986,7.6443577,5.9230003,0.029966734,-0.014796289,-0.0053412486,-13.851513,-31.005318,-11.607704
674187795675571,0.0023940986,7.6443577,5.9230003,0.022636358,-0.016018016,-0.004119519,-13.851513,-31.005318,-11.607704
674187796923071,0.009576394,7.634781,5.891877,0.022636358,-0.016018016,-0.004119519,-13.851513,-31.005318,-11.607704
674187799418071,0.026335087,7.615628,5.8344183,0.022636358,-0.016018016,-0.004119519,-13.851513,-31.005318,-11.607704
674187798170571,0.026335087,7.615628,5.8344183,0.013473386,-0.017850611,-0.0028977897,-13.851513,-31.005318,-11.607704
674187800665519,0.026335087,7.615628,5.8344183,0.007975603,-0.018461475,-0.0071738428,-13.851513,-31.005318,-11.607704
674187801913019,0.04069968,7.6252046,5.8009014,0.007975603,-0.018461475,-0.0071738428,-13.851513,-31.005318,-11.607704
674187803160467,0.04069968,7.6252046,5.8009014,6.452268E-4,-0.0215158,-0.010839031,-13.851513,-31.005318,-11.607704
674187801978176,0.04069968,7.6252046,5.8009014,6.452268E-4,-0.0215158,-0.010839031,-14.426304,-29.72961,-11.447533
674187804407967,0.052670173,7.615628,5.7841425,6.452268E-4,-0.0215158,-0.010839031,-14.426304,-29.72961,-11.447533
674187805655415,0.052670173,7.615628,5.7841425,-0.0072960146,-0.0215158,-0.013893355,-14.426304,-29.72961,-11.447533
674187806902915,0.050276075,7.608446,5.774566,-0.0072960146,-0.0215158,-0.013893355,-14.426304,-29.72961,-11.447533
674187808150415,0.050276075,7.608446,5.774566,-0.01706985,-0.019683206,-0.018169407,-14.426304,-29.72961,-11.447533
674187809397915,0.04069968,7.613234,5.774566,-0.01706985,-0.019683206,-0.018169407,-14.426304,-29.72961,-11.447533
674187810645363,0.04069968,7.613234,5.774566,-0.025011092,-0.017850611,-0.019391138,-14.426304,-29.72961,-11.447533
674187811892863,0.045487873,7.6275983,5.791325,-0.025011092,-0.017850611,-0.019391138,-14.426304,-29.72961,-11.447533
674187813140311,0.045487873,7.6275983,5.791325,-0.033563197,-0.0111310985,-0.02611065,-14.426304,-29.72961,-11.447533
674187811984269,0.045487873,7.6275983,5.791325,-0.033563197,-0.0111310985,-0.02611065,-14.315645,-31.304745,-11.603413
674187814387811,0.062246565,7.6204166,5.798507,-0.033563197,-0.0111310985,-0.02611065,-14.315645,-31.304745,-11.603413
674187816882811,0.083793454,7.639569,5.815266,-0.033563197,-0.0111310985,-0.02611065,-14.315645,-31.304745,-11.603413
674187815635311,0.083793454,7.639569,5.815266,-0.039671846,-0.0038007228,-0.03405189,-14.315645,-31.304745,-11.603413
674187818130259,0.083793454,7.639569,5.815266,-0.046391357,0.009027436,-0.038938805,-14.315645,-31.304745,-11.603413
674187819377759,0.09336985,7.6515393,5.8272367,-0.046391357,0.009027436,-0.038938805,-14.315645,-31.304745,-11.603413
674187820625207,0.09336985,7.6515393,5.8272367,-0.052500002,0.020633865,-0.046880048,-14.315645,-31.304745,-11.603413
674187821872707,0.08618756,7.66351,5.865542,-0.052500002,0.020633865,-0.046880048,-14.315645,-31.304745,-11.603413
674187823120207,0.08618756,7.66351,5.865542,-0.059219517,0.034683757,-0.051156104,-14.315645,-31.304745,-11.603413
674187821977811,0.08618756,7.66351,5.865542,-0.059219517,0.034683757,-0.051156104,-14.4591675,-30.729107,-12.5242
674187824367707,0.08858166,7.6922393,5.9014535,-0.059219517,0.034683757,-0.051156104,-14.4591675,-30.729107,-12.5242
674187825615155,0.08858166,7.6922393,5.9014535,-0.065328166,0.053009696,-0.056653883,-14.4591675,-30.729107,-12.5242
674187826862655,0.083793454,7.7257566,5.942153,-0.065328166,0.053009696,-0.056653883,-14.4591675,-30.729107,-12.5242
674187828110103,0.083793454,7.7257566,5.942153,-0.07021508,0.071335636,-0.064595126,-14.4591675,-30.729107,-12.5242
674187829357603,0.05506427,7.730545,5.968488,-0.07021508,0.071335636,-0.064595126,-14.4591675,-30.729107,-12.5242
674187830605103,0.05506427,7.730545,5.968488,-0.076323725,0.08782899,-0.067649454,-14.4591675,-30.729107,-12.5242
674187831852603,0.04069968,7.7425156,5.9996114,-0.076323725,0.08782899,-0.067649454,-14.4591675,-30.729107,-12.5242
674187833100051,0.04069968,7.7425156,5.9996114,-0.07998892,0.10554406,-0.073758096,-14.4591675,-30.729107,-12.5242
674187831984373,0.04069968,7.7425156,5.9996114,-0.07998892,0.10554406,-0.073758096,-14.426304,-29.72961,-11.447533
674187834347551,0.0,7.764062,6.0307345,-0.07998892,0.10554406,-0.073758096,-14.426304,-29.72961,-11.447533
674187836842498,-0.023940988,7.7736387,6.037917,-0.07998892,0.10554406,-0.073758096,-14.426304,-29.72961,-11.447533
674187835594998,-0.023940988,7.7736387,6.037917,-0.08304324,0.11653963,-0.0719255,-14.426304,-29.72961,-11.447533
674187838089998,-0.023940988,7.7736387,6.037917,-0.08487584,0.1275352,-0.07742328,-14.426304,-29.72961,-11.447533
674187839337498,-0.07900526,7.785609,6.05707,-0.08487584,0.1275352,-0.07742328,-14.426304,-29.72961,-11.447533
674187840584946,-0.07900526,7.785609,6.05707,-0.08670843,0.13425471,-0.07436896,-14.426304,-29.72961,-11.447533
674187841832446,-0.10294625,7.7999735,6.0786166,-0.08670843,0.13425471,-0.07436896,-14.426304,-29.72961,-11.447533
674187842025832,-0.10294625,7.7999735,6.0786166,-0.08670843,0.13425471,-0.07436896,-15.816681,-30.629612,-11.127163
674187843079894,-0.10294625,7.7999735,6.0786166,-0.08793016,0.14158508,-0.070703775,-15.816681,-30.629612,-11.127163
674187844327394,-0.14364593,7.8167324,6.0953755,-0.08793016,0.14158508,-0.070703775,-15.816681,-30.629612,-11.127163
674187845574894,-0.14364593,7.8167324,6.0953755,-0.089762755,0.14158508,-0.06581686,-15.816681,-30.629612,-11.127163
674187846822394,-0.1819515,7.831097,6.1264987,-0.089762755,0.14158508,-0.06581686,-15.816681,-30.629612,-11.127163
674187848069842,-0.1819515,7.831097,6.1264987,-0.09098448,0.14158508,-0.062151667,-15.816681,-30.629612,-11.127163
674187849317342,-0.23462167,7.85025,6.152834,-0.09098448,0.14158508,-0.062151667,-15.816681,-30.629612,-11.127163
674187850564790,-0.23462167,7.85025,6.152834,-0.08793016,0.1446394,-0.05359956,-15.816681,-30.629612,-11.127163
674187851812290,-0.27292725,7.859826,6.176775,-0.08793016,0.1446394,-0.05359956,-15.816681,-30.629612,-11.127163
674187853059790,-0.27292725,7.859826,6.176775,-0.08854102,0.146472,-0.04443659,-15.816681,-30.629612,-11.127163
674187854307290,-0.30165642,7.8430676,6.205504,-0.08854102,0.146472,-0.04443659,-15.816681,-30.629612,-11.127163
674187852031353,-0.30165642,7.8430676,6.205504,-0.08854102,0.146472,-0.04443659,-15.816681,-30.629612,-11.127163
674187855554738,-0.30165642,7.8430676,6.205504,-0.08793016,0.14586113,-0.038938805,-15.816681,-30.629612,-11.127163
674187856802238,-0.3327797,7.8430676,6.236627,-0.08793016,0.14586113,-0.038938805,-15.816681,-30.629612,-11.127163
674187858049686,-0.3327797,7.8430676,6.236627,-0.09037362,0.14341767,-0.028554108,-15.816681,-30.629612,-11.127163
674187859297186,-0.34953842,7.8478556,6.2677503,-0.09037362,0.14341767,-0.028554108,-15.816681,-30.629612,-11.127163
674187860544634,-0.34953842,7.8478556,6.2677503,-0.092817076,0.13853076,-0.019391138,-15.816681,-30.629612,-11.127163
674187861792134,-0.387844,7.857432,6.277327,-0.092817076,0.13853076,-0.019391138,-15.816681,-30.629612,-11.127163
674187863039634,-0.387844,7.857432,6.277327,-0.09526053,0.13425471,-0.0077847075,-15.816681,-30.629612,-11.127163
674187862024998,-0.387844,7.857432,6.277327,-0.09526053,0.13425471,-0.0077847075,-15.814325,-30.338055,-11.89579
674187864287134,-0.3974204,7.857432,6.2869034,-0.09526053,0.13425471,-0.0077847075,-15.814325,-30.338055,-11.89579
674187865534582,-0.3974204,7.857432,6.2869034,-0.09709313,0.12936778,0.001989128,-15.814325,-30.338055,-11.89579
674187866782082,-0.40460268,7.852644,6.3108444,-0.09709313,0.12936778,0.001989128,-15.814325,-30.338055,-11.89579
674187868029530,-0.40460268,7.852644,6.3108444,-0.0958714,0.11898309,0.012984692,-15.814325,-30.338055,-11.89579
674187869277030,-0.4069968,7.8717966,6.3347855,-0.0958714,0.11898309,0.012984692,-15.814325,-30.338055,-11.89579
674187870524530,-0.4069968,7.8717966,6.3347855,-0.09526053,0.110430986,0.025812853,-15.814325,-30.338055,-11.89579
674187871772030,-0.3902381,7.8430676,6.3635144,-0.09526053,0.110430986,0.025812853,-15.814325,-30.338055,-11.89579
674187872010988,-0.3902381,7.8430676,6.3635144,-0.09526053,0.110430986,0.025812853,-15.854601,-32.50548,-9.590443
674187873019478,-0.3902381,7.8430676,6.3635144,-0.09709313,0.09943542,0.037419282,-15.854601,-32.50548,-9.590443
674187874266978,-0.387844,7.835885,6.377879,-0.09709313,0.09943542,0.037419282,-15.854601,-32.50548,-9.590443
674187876761926,-0.37108532,7.833491,6.377879,-0.09709313,0.09943542,0.037419282,-15.854601,-32.50548,-9.590443
674187875514426,-0.37108532,7.833491,6.377879,-0.09464967,0.08721812,0.04474966,-15.854601,-32.50548,-9.590443
674187878009426,-0.37108532,7.833491,6.377879,-0.09342794,0.071335636,0.05757782,-15.854601,-32.50548,-9.590443
674187879256926,-0.34475023,7.8167324,6.375485,-0.09342794,0.071335636,0.05757782,-15.854601,-32.50548,-9.590443
674187880504373,-0.34475023,7.8167324,6.375485,-0.092817076,0.051787965,0.067351654,-15.854601,-32.50548,-9.590443
674187881751873,-0.30165642,7.7975793,6.370697,-0.092817076,0.051787965,0.067351654,-15.854601,-32.50548,-9.590443
674187882186978,-0.30165642,7.7975793,6.370697,-0.092817076,0.051787965,0.067351654,-16.269066,-30.351917,-11.583881
674187882999321,-0.30165642,7.7975793,6.370697,-0.09037362,0.033462025,0.07407117,-16.269066,-30.351917,-11.583881
674187884246821,-0.27053314,7.7712445,6.394638,-0.09037362,0.033462025,0.07407117,-16.269066,-30.351917,-11.583881
674187886741821,-0.25138038,7.7736387,6.399426,-0.09037362,0.033462025,0.07407117,-16.269066,-30.351917,-11.583881
674187885494321,-0.25138038,7.7736387,6.399426,-0.08793016,0.012692625,0.08017981,-16.269066,-30.351917,-11.583881
674187889236769,-0.22504528,7.7664566,6.3922434,-0.08793016,0.012692625,0.08017981,-16.269066,-30.351917,-11.583881
674187887989269,-0.22504528,7.7664566,6.3922434,-0.08182151,-0.0062441807,0.08506673,-16.269066,-30.351917,-11.583881
674187890484217,-0.22504528,7.7664566,6.3922434,-0.07876719,-0.025791852,0.08934278,-16.269066,-30.351917,-11.583881
674187891731717,-0.1915279,7.7496977,6.377879,-0.07876719,-0.025791852,0.08934278,-16.269066,-30.351917,-11.583881
674187892979217,-0.1915279,7.7496977,6.377879,-0.07571286,-0.045339525,0.094840564,-16.269066,-30.351917,-11.583881
674187894226717,-0.14125183,7.728151,6.380273,-0.07571286,-0.045339525,0.094840564,-16.269066,-30.351917,-11.583881
674187891984946,-0.14125183,7.728151,6.380273,-0.07571286,-0.045339525,0.094840564,-14.903856,-30.751514,-10.674789
674187895474165,-0.14125183,7.728151,6.380273,-0.07143681,-0.0630546,0.094840564,-14.903856,-30.751514,-10.674789
674187896721665,-0.10773444,7.7161803,6.4113965,-0.07143681,-0.0630546,0.094840564,-14.903856,-30.751514,-10.674789
674187897969113,-0.10773444,7.7161803,6.4113965,-0.0647173,-0.075882755,0.09545143,-14.903856,-30.751514,-10.674789
674187899216613,-0.033517383,7.711392,6.404214,-0.0647173,-0.075882755,0.09545143,-14.903856,-30.751514,-10.674789
674187900464061,-0.033517383,7.711392,6.404214,-0.060441248,-0.08993265,0.09178624,-14.903856,-30.751514,-10.674789
674187901711561,0.04069968,7.7233624,6.404214,-0.060441248,-0.08993265,0.09178624,-14.903856,-30.751514,-10.674789
674187904206561,0.09815805,7.7425156,6.397032,-0.060441248,-0.08993265,0.09178624,-14.903856,-30.751514,-10.674789
674187902959061,0.09815805,7.7425156,6.397032,-0.0543326,-0.09909562,0.08812106,-14.903856,-30.751514,-10.674789
674187901978019,0.09815805,7.7425156,6.397032,-0.0543326,-0.09909562,0.08812106,-15.215389,-30.753632,-11.7481
674187905454009,0.09815805,7.7425156,6.397032,-0.04822395,-0.107647724,0.08323414,-15.215389,-30.753632,-11.7481
674187906701509,0.15561642,7.732939,6.4113965,-0.04822395,-0.107647724,0.08323414,-15.215389,-30.753632,-11.7481
674187907949009,0.15561642,7.732939,6.4113965,-0.042726167,-0.11009118,0.07590376,-15.215389,-30.753632,-11.7481
674187909196509,0.21307479,7.7520914,6.4161844,-0.042726167,-0.11009118,0.07590376,-15.215389,-30.753632,-11.7481
674187911691457,0.26095676,7.75688,6.404214,-0.042726167,-0.11009118,0.07590376,-15.215389,-30.753632,-11.7481
674187910443957,0.26095676,7.75688,6.404214,-0.037228387,-0.10581513,0.06796252,-15.215389,-30.753632,-11.7481
674187912938905,0.26095676,7.75688,6.404214,-0.034174062,-0.10398254,0.06063214,-15.215389,-30.753632,-11.7481
674187911985519,0.26095676,7.75688,6.404214,-0.034174062,-0.10398254,0.06063214,-14.717045,-29.162296,-11.598103
674187914186405,0.28010955,7.7520914,6.3826675,-0.034174062,-0.10398254,0.06063214,-14.717045,-29.162296,-11.598103
674187915433905,0.28010955,7.7520914,6.3826675,-0.029287145,-0.0942087,0.04658225,-14.717045,-29.162296,-11.598103
674187916681405,0.31362695,7.7736387,6.375485,-0.029287145,-0.0942087,0.04658225,-14.717045,-29.162296,-11.598103
674187919176353,0.33038563,7.7927914,6.373091,-0.029287145,-0.0942087,0.04658225,-14.717045,-29.162296,-11.598103
674187917928853,0.33038563,7.7927914,6.373091,-0.025011092,-0.08443487,0.037419282,-14.717045,-29.162296,-11.598103
674187920423801,0.33038563,7.7927914,6.373091,-0.023178495,-0.07099584,0.025812853,-14.717045,-29.162296,-11.598103
674187921671301,0.3327797,7.780821,6.375485,-0.023178495,-0.07099584,0.025812853,-14.717045,-29.162296,-11.598103
674187921978280,0.3327797,7.780821,6.375485,-0.023178495,-0.07099584,0.025812853,-14.769382,-31.319458,-11.137753
674187924166248,0.33756793,7.788003,6.380273,-0.023178495,-0.07099584,0.025812853,-14.769382,-31.319458,-11.137753
674187922918748,0.33756793,7.788003,6.380273,-0.023178495,-0.059389412,0.016039018,-14.769382,-31.319458,-11.137753
674187925413748,0.33756793,7.788003,6.380273,-0.021956768,-0.042285196,0.0056543164,-14.769382,-31.319458,-11.137753
674187926661248,0.32320336,7.804762,6.375485,-0.021956768,-0.042285196,0.0056543164,-14.769382,-31.319458,-11.137753
674187929156196,0.30883875,7.8167324,6.377879,-0.021956768,-0.042285196,0.0056543164,-14.769382,-31.319458,-11.137753
674187927908696,0.30883875,7.8167324,6.377879,-0.01706985,-0.02518099,-0.0059521133,-14.769382,-31.319458,-11.137753
674187930403644,0.30883875,7.8167324,6.377879,-0.020124175,-0.0068550464,-0.013893355,-14.769382,-31.319458,-11.137753
674187931651144,0.27532133,7.8215203,6.351544,-0.020124175,-0.0068550464,-0.013893355,-14.769382,-31.319458,-11.137753
674187932898644,0.27532133,7.8215203,6.351544,-0.020124175,0.009638301,-0.018780272,-14.769382,-31.319458,-11.137753
674187931423123,0.27532133,7.8215203,6.351544,-0.020124175,0.009638301,-0.018780272,-15.535656,-31.335434,-11.899151
674187934146144,0.26095676,7.8167324,6.34915,-0.020124175,0.009638301,-0.018780272,-15.535656,-31.335434,-11.899151
674187933093488,0.26095676,7.8167324,6.34915,-0.020124175,0.009638301,-0.018780272,-15.535656,-31.335434,-11.899151
674187935393592,0.26095676,7.8167324,6.34915,-0.019513309,0.024299055,-0.024278056,-15.535656,-31.335434,-11.899151
674187936641092,0.23701578,7.7951856,6.34915,-0.019513309,0.024299055,-0.024278056,-15.535656,-31.335434,-11.899151
674187937888540,0.23701578,7.7951856,6.34915,-0.018902443,0.039570674,-0.029775836,-15.535656,-31.335434,-11.899151
674187939136040,0.21546888,7.7903976,6.353938,-0.018902443,0.039570674,-0.029775836,-15.535656,-31.335434,-11.899151
674187940383540,0.21546888,7.7903976,6.353938,-0.014626391,0.054842293,-0.035884485,-15.535656,-31.335434,-11.899151
674187941631040,0.1891338,7.783215,6.34915,-0.014626391,0.054842293,-0.035884485,-15.535656,-31.335434,-11.899151
674187941979478,0.1891338,7.783215,6.34915,-0.014626391,0.054842293,-0.035884485,-13.522522,-29.843822,-12.378914
674187944125988,0.1867397,7.7736387,6.3347855,-0.014626391,0.054842293,-0.035884485,-13.522522,-29.843822,-12.378914
674187942878488,0.1867397,7.7736387,6.3347855,-0.01829158,0.06400526,-0.03527362,-13.522522,-29.843822,-12.378914
674187945373436,0.1867397,7.7736387,6.3347855,-0.012793798,0.0719465,-0.03649535,-13.522522,-29.843822,-12.378914
674187946620936,0.17955741,7.785609,6.322815,-0.012793798,0.0719465,-0.03649535,-13.522522,-29.843822,-12.378914
674187949115936,0.15561642,7.7927914,6.322815,-0.012793798,0.0719465,-0.03649535,-13.522522,-29.843822,-12.378914
674187947868436,0.15561642,7.7927914,6.322815,-0.012182932,0.07805515,-0.040160537,-13.522522,-29.843822,-12.378914
674187950363384,0.15561642,7.7927914,6.322815,-0.009739473,0.07805515,-0.04199313,-13.522522,-29.843822,-12.378914
674187951610884,0.13406953,7.7975793,6.306056,-0.009739473,0.07805515,-0.04199313,-13.522522,-29.843822,-12.378914
674187952858332,0.13406953,7.7975793,6.306056,-0.009739473,0.077444285,-0.040771402,-13.522522,-29.843822,-12.378914
674187951984790,0.13406953,7.7975793,6.306056,-0.009739473,0.077444285,-0.040771402,-15.814325,-30.338055,-11.89579
674187954105832,0.09576395,7.807156,6.3132386,-0.009739473,0.077444285,-0.040771402,-15.814325,-30.338055,-11.89579
674187956600832,0.08139936,7.807156,6.3180265,-0.009739473,0.077444285,-0.040771402,-15.814325,-30.338055,-11.89579
674187955353332,0.08139936,7.807156,6.3180265,-0.010350339,0.074389964,-0.04199313,-15.814325,-30.338055,-11.89579
674187957848280,0.08139936,7.807156,6.3180265,-0.009128608,0.07316823,-0.043825723,-15.814325,-30.338055,-11.89579
674187959095780,0.076611154,7.80955,6.306056,-0.009128608,0.07316823,-0.043825723,-15.814325,-30.338055,-11.89579
674187960343228,0.076611154,7.80955,6.306056,-0.010350339,0.065226994,-0.042603996,-15.814325,-30.338055,-11.89579
674187961590728,0.052670173,7.8191266,6.282115,-0.010350339,0.065226994,-0.042603996,-15.814325,-30.338055,-11.89579
674187961978071,0.052670173,7.8191266,6.282115,-0.010350339,0.065226994,-0.042603996,-15.484343,-29.61774,-10.822182
674187962838228,0.052670173,7.8191266,6.282115,-0.011572067,0.054842293,-0.040771402,-15.484343,-29.61774,-10.822182
674187964085728,0.026335087,7.811944,6.260568,-0.011572067,0.054842293,-0.040771402,-15.484343,-29.61774,-10.822182
674187965333176,0.026335087,7.811944,6.260568,-0.012793798,0.044457592,-0.03954967,-15.484343,-29.61774,-10.822182
674187966580676,0.0023940986,7.804762,6.250992,-0.012793798,0.044457592,-0.03954967,-15.484343,-29.61774,-10.822182
674187969075623,-0.016758692,7.8143387,6.229445,-0.012793798,0.044457592,-0.03954967,-15.484343,-29.61774,-10.822182
674187967828123,-0.016758692,7.8143387,6.229445,-0.01706985,0.032240294,-0.038938805,-15.484343,-29.61774,-10.822182
674187970323071,-0.016758692,7.8143387,6.229445,-0.01829158,0.016968679,-0.034662753,-15.484343,-29.61774,-10.822182
