time,aX,aY,aZ,wX,wY,wZ,mX,mY,mZ
429005237719112,0.07879776,0.21795225,9.893231,-9.987503E-6,3.329292E-5,-0.0012151627,23.003479,-3.2026348,-38.97716
429005252194477,0.08119284,0.20597684,9.890838,-9.987503E-6,3.329292E-5,-0.0012151627,23.003479,-3.2026348,-38.97716
429005243324477,0.08119284,0.20597684,9.890838,-9.987503E-6,3.329292E-5,-0.0012151627,24.216194,-2.0240498,-38.24442
429005257719112,0.08119284,0.20597684,9.890838,-9.987503E-6,-0.0010320563,-0.0012151627,24.216194,-2.0240498,-38.24442
429005263408174,0.07400759,0.20358178,9.895627,-9.987503E-6,-0.0010320563,-0.0012151627,24.216194,-2.0240498,-38.24442
429005272278174,0.07400759,0.20358178,9.895627,-9.987503E-6,-0.0010320563,-0.0012151627,23.180971,-2.911396,-37.92252
429005277719112,0.07879776,0.20837192,9.888442,-9.987503E-6,-0.0010320563,-0.0012151627,23.180971,-2.911396,-37.92252
429005283491872,0.07879776,0.20837192,9.888442,-9.987503E-6,3.329292E-5,-0.0017478373,23.180971,-2.911396,-37.92252
429005292361872,0.07879776,0.20837192,9.888442,-9.987503E-6,3.329292E-5,-0.0017478373,23.063986,-1.8799171,-38.580757
429005297719112,0.09316824,0.22753257,9.893231,-9.987503E-6,3.329292E-5,-0.0017478373,23.063986,-1.8799171,-38.580757
429005303575570,0.09316824,0.22753257,9.893231,-9.987503E-6,-4.993826E-4,-0.0012151627,23.063986,-1.8799171,-38.580757
429005312445570,0.09316824,0.22753257,9.893231,-9.987503E-6,-4.993826E-4,-0.0012151627,22.891655,-2.0299072,-38.729694
429005317719112,0.085983,0.210767,9.898023,-9.987503E-6,-4.993826E-4,-0.0012151627,22.891655,-2.0299072,-38.729694
429005332529268,0.085983,0.210767,9.898023,-9.987503E-6,3.329292E-5,-0.0017478373,22.891655,-2.0299072,-38.729694
429005323659268,0.085983,0.210767,9.898023,-9.987503E-6,3.329292E-5,-0.0017478373,23.835419,-3.1195507,-38.962467
429005337719112,0.085983,0.210767,9.898023,-5.426621E-4,3.329292E-5,-0.0012151627,23.835419,-3.1195507,-38.962467
429005352612914,0.085983,0.20837192,9.888442,-5.426621E-4,3.329292E-5,-0.0012151627,23.835419,-3.1195507,-38.962467
429005343742914,0.085983,0.20837192,9.888442,-5.426621E-4,3.329292E-5,-0.0012151627,21.65346,-3.7246685,-38.375084
429005357719112,0.07161252,0.210767,9.895627,-5.426621E-4,3.329292E-5,-0.0012151627,21.65346,-3.7246685,-38.375084
429005372696612,0.07161252,0.210767,9.895627,-5.426621E-4,-4.993826E-4,-6.824891E-4,21.65346,-3.7246685,-38.375084
429005363826612,0.07161252,0.210767,9.895627,-5.426621E-4,-4.993826E-4,-6.824891E-4,22.158876,-3.5445938,-38.52415
429005377719112,0.07640268,0.20597684,9.883652,-5.426621E-4,-4.993826E-4,-6.824891E-4,22.158876,-3.5445938,-38.52415
429005383910310,0.07640268,0.20597684,9.883652,-9.987503E-6,3.329292E-5,-0.0012151627,22.158876,-3.5445938,-38.52415
429005392780310,0.07640268,0.20597684,9.883652,-9.987503E-6,3.329292E-5,-0.0012151627,22.701813,-2.58317,-39.620514
429005397719112,0.07640268,0.20597684,9.883652,-5.426621E-4,-0.0010320563,-0.0012151627,22.701813,-2.58317,-39.620514
429005403994008,0.07400759,0.20358178,9.895627,-5.426621E-4,-0.0010320563,-0.0012151627,22.701813,-2.58317,-39.620514
429005412864008,0.07400759,0.20358178,9.895627,-5.426621E-4,-0.0010320563,-0.0012151627,22.539497,-2.4475164,-37.65416
429005417719112,0.07400759,0.20358178,9.886047,-5.426621E-4,-0.0010320563,-0.0012151627,22.539497,-2.4475164,-37.65416
429005424077654,0.07400759,0.20358178,9.886047,-9.987503E-6,5.6596566E-4,-0.0012151627,22.539497,-2.4475164,-37.65416
429005432947654,0.07400759,0.20358178,9.886047,-9.987503E-6,5.6596566E-4,-0.0012151627,24.185242,-2.6783218,-37.75889
429005437719112,0.07400759,0.19639653,9.893231,-9.987503E-6,5.6596566E-4,-0.0012151627,24.185242,-2.6783218,-37.75889
429005453031352,0.07400759,0.19639653,9.893231,-9.987503E-6,3.329292E-5,-0.0012151627,24.185242,-2.6783218,-37.75889
429005444161352,0.07400759,0.19639653,9.893231,-9.987503E-6,3.329292E-5,-0.0012151627,23.53344,-2.4969368,-39.301937
429005457719112,0.07640268,0.210767,9.895627,-9.987503E-6,3.329292E-5,-0.0012151627,23.53344,-2.4969368,-39.301937
429005464244997,0.07640268,0.210767,9.895627,-9.987503E-6,-4.993826E-4,-0.0012151627,23.53344,-2.4969368,-39.301937
429005473114997,0.07640268,0.210767,9.895627,-9.987503E-6,-4.993826E-4,-0.0012151627,22.799883,-4.003748,-38.336685
429005477719112,0.08119284,0.19639653,9.886047,-9.987503E-6,-4.993826E-4,-0.0012151627,22.799883,-4.003748,-38.336685
429005484328643,0.08119284,0.19639653,9.886047,5.2268617E-4,-4.993826E-4,-0.0017478373,22.799883,-4.003748,-38.336685
429005493198643,0.08119284,0.19639653,9.886047,5.2268617E-4,-4.993826E-4,-0.0017478373,24.0359,-2.2869415,-36.564125
429005497719112,0.08119284,0.19639653,9.886047,-9.987503E-6,-4.993826E-4,-0.0012151627,24.0359,-2.2869415,-36.564125
429005504412341,0.09077316,0.21316208,9.883652,-9.987503E-6,-4.993826E-4,-0.0012151627,24.0359,-2.2869415,-36.564125
429005513282341,0.09077316,0.21316208,9.883652,-9.987503E-6,-4.993826E-4,-0.0012151627,22.690395,-2.8546429,-40.368332
429005517719112,0.07400759,0.21316208,9.881256,-9.987503E-6,-4.993826E-4,-0.0012151627,22.690395,-2.8546429,-40.368332
429005533365987,0.07400759,0.21316208,9.881256,5.2268617E-4,-4.993826E-4,-0.0012151627,22.690395,-2.8546429,-40.368332
429005524495987,0.07400759,0.21316208,9.881256,5.2268617E-4,-4.993826E-4,-0.0012151627,23.693575,-2.6105442,-39.141113
429005537719112,0.07400759,0.21316208,9.881256,-9.987503E-6,3.329292E-5,-0.0012151627,23.693575,-2.6105442,-39.141113
429005553449633,0.07879776,0.20597684,9.895627,-9.987503E-6,3.329292E-5,-0.0012151627,23.693575,-2.6105442,-39.141113
429005544579633,0.07879776,0.20597684,9.895627,-9.987503E-6,3.329292E-5,-0.0012151627,21.35898,-2.9844284,-40.087963
429005557719112,0.07879776,0.20597684,9.895627,-5.426621E-4,3.329292E-5,-0.0017478373,21.35898,-2.9844284,-40.087963
429005573533331,0.07640268,0.20358178,9.876467,-5.426621E-4,3.329292E-5,-0.0017478373,21.35898,-2.9844284,-40.087963
429005564663331,0.07640268,0.20358178,9.876467,-5.426621E-4,3.329292E-5,-0.0017478373,22.017502,-3.0403118,-39.15862
429005577719112,0.07640268,0.1987916,9.890838,-5.426621E-4,3.329292E-5,-0.0017478373,22.017502,-3.0403118,-39.15862
429005593616977,0.07640268,0.1987916,9.890838,-5.426621E-4,-4.993826E-4,-0.0017478373,22.017502,-3.0403118,-39.15862
429005584746977,0.07640268,0.1987916,9.890838,-5.426621E-4,-4.993826E-4,-0.0017478373,22.74997,-1.5224771,-39.06028
429005597719112,0.07640268,0.1987916,9.890838,-5.426621E-4,-4.993826E-4,-0.0017478373,23.521557,-2.7636852,-39.593933
429005604830622,0.085983,0.20358178,9.886047,-5.426621E-4,-4.993826E-4,-0.0017478373,23.521557,-2.7636852,-39.593933
429005613700622,0.085983,0.20358178,9.886047,-9.987503E-6,3.329292E-5,-0.0012151627,23.521557,-2.7636852,-39.593933
429005617719112,0.085983,0.20358178,9.886047,-9.987503E-6,3.329292E-5,-0.0012151627,21.839073,-3.3221016,-39.301617
429005633784268,0.083587915,0.1987916,9.886047,-9.987503E-6,3.329292E-5,-0.0012151627,21.839073,-3.3221016,-39.301617
429005624914268,0.083587915,0.1987916,9.886047,-9.987503E-6,3.329292E-5,-0.0017478373,21.839073,-3.3221016,-39.301617
429005637719112,0.083587915,0.1987916,9.886047,-9.987503E-6,3.329292E-5,-0.0017478373,23.533752,-2.5000858,-39.60582
429005644997966,0.07640268,0.19639653,9.888442,-9.987503E-6,3.329292E-5,-0.0017478373,23.533752,-2.5000858,-39.60582
429005653867966,0.07640268,0.19639653,9.888442,-9.987503E-6,5.6596566E-4,-0.0017478373,23.533752,-2.5000858,-39.60582
429005657719112,0.07640268,0.19639653,9.888442,-9.987503E-6,3.329292E-5,-0.0012151627,23.533752,-2.5000858,-39.60582
429005665081612,0.08119284,0.20597684,9.886047,-9.987503E-6,3.329292E-5,-0.0012151627,23.533752,-2.5000858,-39.60582
429005673951612,0.08119284,0.20597684,9.886047,-9.987503E-6,3.329292E-5,-0.0012151627,22.498684,-3.3890076,-39.43586
429005677719112,0.08119284,0.20597684,9.886047,-9.987503E-6,3.329292E-5,-0.0012151627,24.094246,-4.660036,-38.125584
429005685165258,0.07640268,0.21316208,9.890838,-9.987503E-6,3.329292E-5,-0.0012151627,24.094246,-4.660036,-38.125584
429005694035258,0.07640268,0.21316208,9.890838,-0.0010753358,-4.993826E-4,-0.0017478373,24.094246,-4.660036,-38.125584
429005697719112,0.069217436,0.20358178,9.890838,-0.0010753358,-4.993826E-4,-0.0017478373,24.094246,-4.660036,-38.125584
429005705248904,0.069217436,0.20358178,9.890838,-9.987503E-6,3.329292E-5,-6.824891E-4,24.094246,-4.660036,-38.125584
429005714118904,0.069217436,0.20358178,9.890838,-9.987503E-6,3.329292E-5,-6.824891E-4,22.86039,-2.6810303,-37.94028
429005717719112,0.069217436,0.20358178,9.890838,-9.987503E-6,3.329292E-5,-6.824891E-4,22.68775,-2.8278732,-37.78534
429005734202549,0.07879776,0.20118669,9.890838,-9.987503E-6,3.329292E-5,-6.824891E-4,22.68775,-2.8278732,-37.78534
429005725332549,0.07879776,0.20118669,9.890838,-5.426621E-4,-4.993826E-4,-0.0017478373,22.68775,-2.8278732,-37.78534
429005737719112,0.07879776,0.20118669,9.890838,-5.426621E-4,-4.993826E-4,-0.0017478373,23.520157,-2.7495136,-38.226463
429005754286195,0.07879776,0.20118669,9.893231,-5.426621E-4,-4.993826E-4,-0.0017478373,23.520157,-2.7495136,-38.226463
429005745416195,0.07879776,0.20118669,9.893231,-5.426621E-4,3.329292E-5,-0.0017478373,23.520157,-2.7495136,-38.226463
429005757719112,0.07879776,0.20118669,9.893231,-5.426621E-4,3.329292E-5,-0.0017478373,24.289364,-0.44245625,-38.31572
429005765499841,0.07640268,0.20118669,9.888442,-5.426621E-4,3.329292E-5,-0.0017478373,24.289364,-0.44245625,-38.31572
429005774369841,0.07640268,0.20118669,9.888442,-5.426621E-4,5.6596566E-4,-0.0017478373,24.289364,-0.44245625,-38.31572
429005777719112,0.07640268,0.20118669,9.895627,-5.426621E-4,5.6596566E-4,-0.0017478373,24.289364,-0.44245625,-38.31572
429005785583487,0.07640268,0.20118669,9.895627,-5.426621E-4,5.6596566E-4,-0.0017478373,22.527304,-2.711115,-37.642277
429005794453487,0.07640268,0.20118669,9.895627,-5.426621E-4,-4.993826E-4,-6.824891E-4,22.527304,-2.711115,-37.642277
429005797719112,0.07640268,0.20118669,9.895627,-5.426621E-4,-4.993826E-4,-6.824891E-4,22.861168,-2.6889038,-38.699986
429005805667133,0.07879776,0.19639653,9.890838,-5.426621E-4,-4.993826E-4,-6.824891E-4,22.861168,-2.6889038,-38.699986
429005814537133,0.07879776,0.19639653,9.890838,-9.987503E-6,5.6596566E-4,-0.0012151627,22.861168,-2.6889038,-38.699986
429005817719112,0.07879776,0.19639653,9.890838,-9.987503E-6,5.6596566E-4,-0.0012151627,23.182217,-2.923994,-39.138046
429005834620779,0.08119284,0.20837192,9.888442,-9.987503E-6,5.6596566E-4,-0.0012151627,23.182217,-2.923994,-39.138046
429005825750779,0.08119284,0.20837192,9.888442,-9.987503E-6,3.329292E-5,-0.002280511,23.182217,-2.923994,-39.138046
429005837719112,0.08119284,0.20837192,9.888442,-9.987503E-6,3.329292E-5,-0.002280511,22.686972,-2.8199997,-37.025635
429005854704424,0.083587915,0.21795225,9.881256,-9.987503E-6,3.329292E-5,-0.002280511,22.686972,-2.8199997,-37.025635
429005845834424,0.083587915,0.21795225,9.881256,-5.426621E-4,3.329292E-5,-0.0017478373,22.686972,-2.8199997,-37.025635
429005857719112,0.08119284,0.21555716,9.893231,-5.426621E-4,3.329292E-5,-0.0017478373,22.686972,-2.8199997,-37.025635
429005874788070,0.08119284,0.21555716,9.893231,-5.426621E-4,3.329292E-5,-0.0017478373,24.025885,-2.572586,-38.679413
429005865918070,0.08119284,0.21555716,9.893231,-9.987503E-6,5.6596566E-4,-0.0012151627,24.025885,-2.572586,-38.679413
429005877719112,0.08119284,0.21555716,9.893231,-9.987503E-6,5.6596566E-4,-0.0012151627,23.724373,-1.9546967,-39.474705
429005894871664,0.07879776,0.21555716,9.888442,-9.987503E-6,5.6596566E-4,-0.0012151627,23.724373,-1.9546967,-39.474705
429005886001664,0.07879776,0.21555716,9.888442,5.2268617E-4,-4.993826E-4,-0.0012151627,23.724373,-1.9546967,-39.474705
429005897719112,0.07879776,0.21555716,9.888442,5.2268617E-4,-4.993826E-4,-0.0012151627,22.90385,-1.7663088,-38.741577
429005906085310,0.07879776,0.21555716,9.888442,-9.987503E-6,-4.993826E-4,-0.0012151627,22.90385,-1.7663088,-38.741577
429005914955310,0.07879776,0.20358178,9.883652,-9.987503E-6,-4.993826E-4,-0.0012151627,22.90385,-1.7663088,-38.741577
429005917719112,0.07879776,0.20358178,9.883652,-9.987503E-6,-4.993826E-4,-0.0012151627,23.83464,-3.1116772,-38.202763
429005935038956,0.07879776,0.20118669,9.883652,-9.987503E-6,-4.993826E-4,-0.0012151627,23.83464,-3.1116772,-38.202763
429005926168956,0.07879776,0.20118669,9.883652,-9.987503E-6,-4.993826E-4,-0.0012151627,23.83464,-3.1116772,-38.202763
429005937719112,0.07879776,0.20118669,9.883652,-9.987503E-6,-4.993826E-4,-0.0012151627,22.871964,-2.4111328,-37.344402
429005955122549,0.07640268,0.20837192,9.881256,-9.987503E-6,-4.993826E-4,-0.0012151627,22.871964,-2.4111328,-37.344402
429005946252549,0.07640268,0.20837192,9.881256,-5.426621E-4,-4.993826E-4,-0.0012151627,22.871964,-2.4111328,-37.344402
429005957719112,0.07640268,0.20837192,9.881256,-5.426621E-4,-4.993826E-4,-0.0012151627,22.24956,-1.5597305,-37.853573
429005975206195,0.08119284,0.20118669,9.886047,-5.426621E-4,-4.993826E-4,-0.0012151627,22.24956,-1.5597305,-37.853573
429005966336195,0.08119284,0.20118669,9.886047,-9.987503E-6,-4.993826E-4,-0.0012151627,22.24956,-1.5597305,-37.853573
429005977719112,0.08119284,0.20118669,9.886047,-9.987503E-6,-4.993826E-4,-0.0012151627,21.309423,-4.0309486,-39.280724
429005986419789,0.07640268,0.21316208,9.883652,-9.987503E-6,-4.993826E-4,-0.0012151627,21.309423,-4.0309486,-39.280724
429005995289789,0.07640268,0.21316208,9.883652,-5.426621E-4,-4.993826E-4,-0.0012151627,21.309423,-4.0309486,-39.280724
429005997719112,0.07640268,0.21316208,9.883652,-5.426621E-4,-4.993826E-4,-0.0012151627,24.05715,-1.921463,-39.468826
429006006503435,0.07879776,0.20837192,9.886047,-5.426621E-4,-4.993826E-4,-0.0012151627,24.05715,-1.921463,-39.468826
429006015373435,0.07879776,0.20837192,9.886047,-5.426621E-4,3.329292E-5,-0.0017478373,24.05715,-1.921463,-39.468826
429006017719112,0.07879776,0.20837192,9.886047,-5.426621E-4,3.329292E-5,-0.0017478373,21.006355,-3.3973122,-38.556606
429006035457029,0.08119284,0.1987916,9.888442,-5.426621E-4,3.329292E-5,-0.0017478373,21.006355,-3.3973122,-38.556606
429006026587029,0.08119284,0.1987916,9.888442,5.2268617E-4,-4.993826E-4,-0.0017478373,21.006355,-3.3973122,-38.556606
429006037719112,0.08119284,0.1987916,9.888442,5.2268617E-4,-4.993826E-4,-0.0017478373,22.861168,-2.6889038,-38.699986
429006046670674,0.08119284,0.20358178,9.886047,5.2268617E-4,-4.993826E-4,-0.0017478373,22.861168,-2.6889038,-38.699986
429006055540674,0.08119284,0.20358178,9.886047,-9.987503E-6,3.329292E-5,-0.0017478373,22.861168,-2.6889038,-38.699986
429006057719112,0.08119284,0.20358178,9.886047,-9.987503E-6,3.329292E-5,-0.0017478373,24.069344,-1.6578646,-39.48071
429006075624268,0.083587915,0.20358178,9.883652,-9.987503E-6,3.329292E-5,-0.0017478373,24.069344,-1.6578646,-39.48071
429006066754268,0.083587915,0.20358178,9.883652,-5.426621E-4,-4.993826E-4,-0.0017478373,24.069344,-1.6578646,-39.48071
429006077719112,0.083587915,0.20358178,9.883652,-5.426621E-4,-4.993826E-4,-0.0017478373,25.159801,-3.1121159,-38.325253
429006095707862,0.07161252,0.21555716,9.881256,-5.426621E-4,-4.993826E-4,-0.0017478373,25.159801,-3.1121159,-38.325253
429006086837862,0.07161252,0.21555716,9.881256,-9.987503E-6,-4.993826E-4,-0.002280511,25.159801,-3.1121159,-38.325253
429006097719112,0.07161252,0.21555716,9.881256,-9.987503E-6,-4.993826E-4,-0.002280511,23.75486,-1.295701,-39.504414
429006106921508,0.07161252,0.21555716,9.881256,-9.987503E-6,3.329292E-5,-0.002280511,23.75486,-1.295701,-39.504414
429006115791508,0.07161252,0.210767,9.888442,-9.987503E-6,3.329292E-5,-0.002280511,23.75486,-1.295701,-39.504414
429006117719112,0.07161252,0.210767,9.888442,-9.987503E-6,3.329292E-5,-0.002280511,22.281603,-0.91648006,-39.40269
429006135875102,0.07400759,0.20597684,9.890838,-9.987503E-6,3.329292E-5,-0.002280511,22.281603,-0.91648006,-39.40269
429006127005102,0.07400759,0.20597684,9.890838,-5.426621E-4,-4.993826E-4,-0.0017478373,22.281603,-0.91648006,-39.40269
429006137719112,0.07400759,0.20597684,9.890838,-5.426621E-4,-4.993826E-4,-0.0017478373,21.74038,-1.8952246,-39.977676
429006147088695,0.069217436,0.20597684,9.874072,-5.426621E-4,-4.993826E-4,-0.0017478373,21.74038,-1.8952246,-39.977676
429006155958695,0.069217436,0.20597684,9.874072,-9.987503E-6,3.329292E-5,-0.002280511,21.74038,-1.8952246,-39.977676
429006157719112,0.069217436,0.20597684,9.874072,-9.987503E-6,3.329292E-5,-0.002280511,24.65,-3.4413128,-39.841595
429006167172341,0.07640268,0.20118669,9.893231,-9.987503E-6,3.329292E-5,-0.002280511,24.65,-3.4413128,-39.841595
429006176042341,0.07640268,0.20118669,9.893231,-5.426621E-4,3.329292E-5,-0.002280511,24.65,-3.4413128,-39.841595
429006177719112,0.07640268,0.20118669,9.893231,-5.426621E-4,3.329292E-5,-0.002280511,23.722195,-1.9326506,-37.347534
429006187255935,0.07640268,0.20358178,9.883652,-5.426621E-4,3.329292E-5,-0.002280511,23.722195,-1.9326506,-37.347534
429006196125935,0.07640268,0.20358178,9.883652,5.2268617E-4,5.6596566E-4,-0.002280511,23.722195,-1.9326506,-37.347534
429006197719112,0.07640268,0.20358178,9.883652,5.2268617E-4,5.6596566E-4,-0.002280511,24.013689,-2.8361855,-38.66753
429006207339529,0.07640268,0.20358178,9.883652,-5.426621E-4,5.6596566E-4,-0.002280511,24.013689,-2.8361855,-38.66753
429006216209529,0.07640268,0.21555716,9.886047,-5.426621E-4,5.6596566E-4,-0.002280511,24.013689,-2.8361855,-38.66753
429006217719112,0.07640268,0.21555716,9.886047,-5.426621E-4,5.6596566E-4,-0.002280511,23.735012,-1.6753511,-37.96718
429006236293174,0.0620322,0.18921128,9.766293,-5.426621E-4,5.6596566E-4,-0.002280511,23.735012,-1.6753511,-37.96718
429006227423174,0.0620322,0.18921128,9.766293,-0.0010753358,3.329292E-5,-0.002280511,23.735012,-1.6753511,-37.96718
429006237719112,0.0620322,0.18921128,9.766293,-0.0010753358,3.329292E-5,-0.002280511,23.92719,-1.14571,-39.355476
429006256376768,0.10753872,0.27303907,10.120764,-0.0010753358,3.329292E-5,-0.002280511,23.92719,-1.14571,-39.355476
429006247506768,0.10753872,0.27303907,10.120764,0.011708842,-0.007424144,-0.0017478373,23.92719,-1.14571,-39.355476
429006257719112,0.10753872,0.27303907,10.120764,0.011708842,-0.007424144,-0.0017478373,23.25383,-1.3266544,-37.689938
429006276460362,0.04766172,0.15089001,9.790243,0.011708842,-0.007424144,-0.0017478373,23.25383,-1.3266544,-37.689938
429006267590362,0.04766172,0.15089001,9.790243,0.015437559,0.0224056,0.0014482075,23.25383,-1.3266544,-37.689938
429006277719112,0.04766172,0.15089001,9.790243,0.015437559,0.0224056,0.0014482075,22.640526,-3.898014,-39.257214
429006296543956,0.105143644,0.25148335,9.984245,0.015437559,0.0224056,0.0014482075,22.640526,-3.898014,-39.257214
429006287673956,0.105143644,0.25148335,9.984245,-0.019718926,-0.024469713,-0.002280511,22.640526,-3.898014,-39.257214
429006297719112,0.105143644,0.25148335,9.984245,-0.019718926,-0.024469713,-0.002280511,24.691124,-2.5029697,-38.363777
429006307757602,0.07400759,0.17244573,9.83096,-0.019718926,-0.024469713,-0.002280511,24.691124,-2.5029697,-38.363777
429006316627602,0.07400759,0.17244573,9.83096,0.006382101,0.012284795,-0.0028131846,24.691124,-2.5029697,-38.363777
429006317719112,0.07400759,0.17244573,9.83096,0.006382101,0.012284795,-0.0028131846,24.690659,-2.4982452,-37.90795
429006327841195,0.07640268,0.21555716,9.864491,0.006382101,0.012284795,-0.0028131846,24.690659,-2.4982452,-37.90795
429006336711195,0.07640268,0.21555716,9.864491,-0.0016080095,-0.0031627528,-0.0028131846,24.690659,-2.4982452,-37.90795
429006337719112,0.07640268,0.21555716,9.864491,-0.0016080095,-0.0031627528,-0.0028131846,22.201248,-2.6188488,-38.26186
429006347924789,0.08837808,0.1987916,9.905208,-0.0016080095,-0.0031627528,-0.0028131846,22.201248,-2.6188488,-38.26186
429006356794789,0.08837808,0.1987916,9.905208,-5.426621E-4,-0.004760774,-0.0028131846,22.201248,-2.6188488,-38.26186
429006357719112,0.08837808,0.1987916,9.905208,-5.426621E-4,-0.004760774,-0.0028131846,21.696142,-2.8020725,-38.416676
429006376878383,0.06442728,0.21555716,9.866886,-5.426621E-4,-0.004760774,-0.0028131846,21.696142,-2.8020725,-38.416676
429006368008383,0.06442728,0.21555716,9.866886,0.007980123,0.007490728,-0.002280511,21.696142,-2.8020725,-38.416676
429006377719112,0.06442728,0.21555716,9.866886,0.007980123,0.007490728,-0.002280511,23.866528,-2.4668522,-39.59994
429006388091977,0.07400759,0.19639653,9.912393,0.007980123,0.007490728,-0.002280511,23.866528,-2.4668522,-39.59994
429006396961977,0.07400759,0.19639653,9.912393,-0.0048040543,-0.0052934494,-0.002280511,23.866528,-2.4668522,-39.59994
429006397719112,0.07400759,0.19639653,9.912393,-0.0048040543,-0.0052934494,-0.002280511,23.66262,-3.2648163,-38.655582
429006408175570,0.069217436,0.210767,9.869282,-0.0048040543,-0.0052934494,-0.002280511,23.66262,-3.2648163,-38.655582
429006417045570,0.069217436,0.210767,9.869282,-0.0010753358,0.0026966622,-0.0033458592,23.66262,-3.2648163,-38.655582
429006417719112,0.069217436,0.210767,9.869282,-0.0010753358,0.0026966622,-0.0033458592,23.706081,-2.3500948,-39.45688
429006437129164,0.0620322,0.2562735,9.847726,-0.0010753358,0.0026966622,-0.0033458592,23.706081,-2.3500948,-39.45688
429006428259164,0.0620322,0.2562735,9.847726,5.2268617E-4,0.0016313139,-0.0028131846,23.706081,-2.3500948,-39.45688
429006437719112,0.0620322,0.2562735,9.847726,5.2268617E-4,0.0016313139,-0.0028131846,24.35866,-2.5393524,-38.673534
429006448342758,0.083587915,0.1987916,9.881256,5.2268617E-4,0.0016313139,-0.0028131846,24.35866,-2.5393524,-38.673534
429006457212758,0.083587915,0.1987916,9.881256,-0.002140685,-0.0026300792,-0.0017478373,24.35866,-2.5393524,-38.673534
429006457719112,0.083587915,0.1987916,9.881256,-0.002140685,-0.0026300792,-0.0017478373,22.873363,-2.4253054,-38.71187
429006468426352,0.09077316,0.210767,9.893231,-0.002140685,-0.0026300792,-0.0017478373,22.873363,-2.4253054,-38.71187
429006477296352,0.09077316,0.210767,9.893231,-0.0010753358,-4.993826E-4,-0.0028131846,22.873363,-2.4253054,-38.71187
429006477719112,0.09077316,0.210767,9.893231,-0.0010753358,-4.993826E-4,-0.0028131846,25.36184,-2.2952557,-37.446316
429006488509945,0.07161252,0.210767,9.850121,-0.0010753358,-4.993826E-4,-0.0028131846,25.36184,-2.2952557,-37.446316
429006497379945,0.07161252,0.210767,9.850121,-0.0016080095,0.0010986403,-0.0028131846,25.36184,-2.2952557,-37.446316
429006497719112,0.07161252,0.210767,9.850121,-0.0016080095,0.0010986403,-0.0028131846,24.35866,-2.5393524,-38.673534
429006508593539,0.07161252,0.210767,9.850121,-5.426621E-4,-0.0036954265,-0.0028131846,24.35866,-2.5393524,-38.673534
429006517463539,0.08119284,0.21555716,9.898023,-5.426621E-4,-0.0036954265,-0.0028131846,24.35866,-2.5393524,-38.673534
429006517719112,0.08119284,0.21555716,9.898023,-5.426621E-4,-0.0036954265,-0.0028131846,23.180971,-2.911396,-37.92252
429006537547133,0.07161252,0.20837192,9.8573065,-5.426621E-4,-0.0036954265,-0.0028131846,23.180971,-2.911396,-37.92252
429006528677133,0.07161252,0.20837192,9.8573065,0.0037187305,0.0026966622,-0.002280511,23.180971,-2.911396,-37.92252
429006537719112,0.07161252,0.20837192,9.8573065,0.0037187305,0.0026966622,-0.002280511,23.064764,-1.8877907,-39.34046
429006548760674,0.08837808,0.21555716,9.902812,0.0037187305,0.0026966622,-0.002280511,23.064764,-1.8877907,-39.34046
429006557630674,0.08837808,0.21555716,9.902812,-0.002140685,-0.0036954265,-0.0017478373,23.064764,-1.8877907,-39.34046
429006557719112,0.08837808,0.21555716,9.902812,-0.002140685,-0.0036954265,-0.0017478373,24.359905,-2.5519505,-39.889065
429006577714268,0.07879776,0.210767,9.874072,-0.002140685,-0.0036954265,-0.0017478373,24.359905,-2.5519505,-39.889065
429006568844268,0.07879776,0.210767,9.874072,-9.987503E-6,5.6596566E-4,-0.002280511,24.359905,-2.5519505,-39.889065
429006577719112,0.07879776,0.210767,9.874072,-9.987503E-6,5.6596566E-4,-0.002280511,24.087326,-1.2593174,-39.194653
429006597797862,0.06682236,0.23232272,9.878861,-9.987503E-6,5.6596566E-4,-0.002280511,24.087326,-1.2593174,-39.194653
429006588927862,0.06682236,0.23232272,9.878861,-5.426621E-4,-4.993826E-4,-0.002280511,24.087326,-1.2593174,-39.194653
429006597719112,0.06682236,0.23232272,9.878861,-5.426621E-4,-4.993826E-4,-0.002280511,24.804348,-3.689869,-39.978714
429006609011404,0.06682236,0.23232272,9.878861,-5.426621E-4,-0.0010320563,-0.0017478373,24.804348,-3.689869,-39.978714
429006617881404,0.07400759,0.20118669,9.864491,-5.426621E-4,-0.0010320563,-0.0017478373,24.804348,-3.689869,-39.978714
429006617719112,0.07400759,0.20118669,9.864491,-5.426621E-4,-0.0010320563,-0.0017478373,22.060493,-2.1208649,-39.504093
429006637719112,0.07879776,0.20597684,9.893231,-5.426621E-4,-0.0010320563,-0.0017478373,22.060493,-2.1208649,-39.504093
429006629094997,0.07879776,0.20597684,9.893231,0.0021207086,-0.0010320563,-0.002280511,22.060493,-2.1208649,-39.504093
429006637964997,0.07879776,0.20597684,9.893231,0.0021207086,-0.0010320563,-0.002280511,22.090202,-1.4539957,-38.774097
429006657719112,0.07161252,0.19160636,9.883652,0.0021207086,-0.0010320563,-0.002280511,22.090202,-1.4539957,-38.774097
429006649178591,0.07161252,0.19160636,9.883652,0.0015880344,0.0016313139,-0.0028131846,22.090202,-1.4539957,-38.774097
429006658048591,0.07161252,0.19160636,9.883652,0.0015880344,0.0016313139,-0.0028131846,24.345064,-2.7887793,-37.294186
429006677719112,0.07640268,0.210767,9.871676,0.0015880344,0.0016313139,-0.0028131846,24.345064,-2.7887793,-37.294186
429006669262133,0.07640268,0.210767,9.871676,-0.0026733577,-0.0020974036,-0.0033458592,24.345064,-2.7887793,-37.294186
429006678132133,0.07640268,0.210767,9.871676,-0.0026733577,-0.0020974036,-0.0033458592,22.701189,-2.5768719,-39.012745
429006698215727,0.07400759,0.22034734,9.864491,-0.0026733577,-0.0020974036,-0.0033458592,22.701189,-2.5768719,-39.012745
429006689345727,0.07400759,0.22034734,9.864491,0.0031860564,5.6596566E-4,-0.0033458592,22.701189,-2.5768719,-39.012745
429006697719112,0.07400759,0.22034734,9.864491,0.0031860564,5.6596566E-4,-0.0033458592,22.029228,-2.771988,-38.71468
429006717719112,0.07400759,0.22034734,9.864491,0.0047840783,0.0016313139,-0.0028131846,22.029228,-2.771988,-38.71468
429006709429268,0.07640268,0.20837192,9.876467,0.0047840783,0.0016313139,-0.0028131846,22.029228,-2.771988,-38.71468
429006718299268,0.07640268,0.20837192,9.876467,0.0047840783,0.0016313139,-0.0028131846,24.40212,-1.6246309,-39.47483
429006729512862,0.07640268,0.210767,9.893231,0.0047840783,0.0016313139,-0.0028131846,24.40212,-1.6246309,-39.47483
429006738382862,0.07640268,0.210767,9.893231,-5.426621E-4,-0.00156473,-0.0017478373,24.40212,-1.6246309,-39.47483
429006737719112,0.07640268,0.210767,9.893231,-5.426621E-4,-0.00156473,-0.0017478373,22.671013,-3.2390175,-39.286922
429006757719112,0.08119284,0.22513749,9.878861,-5.426621E-4,-0.00156473,-0.0017478373,22.671013,-3.2390175,-39.286922
429006749596456,0.08119284,0.22513749,9.878861,-0.0016080095,3.329292E-5,-0.0017478373,22.671013,-3.2390175,-39.286922
429006758466456,0.08119284,0.22513749,9.878861,-0.0016080095,3.329292E-5,-0.0017478373,24.068254,-1.646842,-38.417126
429006777719112,0.085983,0.21555716,9.866886,-0.0016080095,3.329292E-5,-0.0017478373,24.068254,-1.646842,-38.417126
429006769679997,0.085983,0.21555716,9.866886,-0.0026733577,-0.0010320563,-0.002280511,24.068254,-1.646842,-38.417126
429006778549997,0.085983,0.21555716,9.866886,-0.0026733577,-0.0010320563,-0.002280511,22.528082,-2.7189884,-38.40198
429006797719112,0.09077316,0.22992763,9.874072,-0.0026733577,-0.0010320563,-0.002280511,22.528082,-2.7189884,-38.40198
429006789763591,0.09077316,0.22992763,9.874072,-0.0010753358,-4.993826E-4,-0.002280511,22.528082,-2.7189884,-38.40198
429006798633591,0.09077316,0.22992763,9.874072,-0.0010753358,-4.993826E-4,-0.002280511,23.582531,-1.4456921,-39.65335
429006809847133,0.09077316,0.22992763,9.874072,-5.426621E-4,-4.993826E-4,-0.002280511,23.582531,-1.4456921,-39.65335
429006817719112,0.09316824,0.19160636,9.876467,-5.426621E-4,-4.993826E-4,-0.002280511,23.582531,-1.4456921,-39.65335
429006818717133,0.09316824,0.19160636,9.876467,-5.426621E-4,-4.993826E-4,-0.002280511,23.725151,-1.9625702,-40.23441
429006837719112,0.07879776,0.19160636,9.895627,-5.426621E-4,-4.993826E-4,-0.002280511,23.725151,-1.9625702,-40.23441
429006829930727,0.07879776,0.19160636,9.895627,-9.987503E-6,-0.0020974036,-0.0033458592,23.725151,-1.9625702,-40.23441
429006838800727,0.07879776,0.19160636,9.895627,-9.987503E-6,-0.0020974036,-0.0033458592,23.69233,-2.5979462,-37.925587
429006857719112,0.085983,0.210767,9.869282,-9.987503E-6,-0.0020974036,-0.0033458592,23.69233,-2.5979462,-37.925587
429006850014268,0.085983,0.210767,9.869282,0.0015880344,0.0021639876,-0.0028131846,23.69233,-2.5979462,-37.925587
429006858884268,0.085983,0.210767,9.869282,0.0015880344,0.0021639876,-0.0028131846,23.19628,-2.6792908,-40.97322
429006877719112,0.08119284,0.21555716,9.893231,0.0015880344,0.0021639876,-0.0028131846,23.19628,-2.6792908,-40.97322
429006870097862,0.08119284,0.21555716,9.893231,-5.426621E-4,-0.0010320563,-0.0028131846,23.19628,-2.6792908,-40.97322
429006878967862,0.08119284,0.21555716,9.893231,-5.426621E-4,-0.0010320563,-0.0028131846,21.696142,-2.8020725,-38.416676
429006890181404,0.07879776,0.20837192,9.874072,-5.426621E-4,-0.0010320563,-0.0028131846,21.696142,-2.8020725,-38.416676
429006897719112,0.07879776,0.20837192,9.874072,-9.987503E-6,0.0010986403,-0.0033458592,21.696142,-2.8020725,-38.416676
429006899051404,0.07879776,0.20837192,9.874072,-9.987503E-6,0.0010986403,-0.0033458592,22.528393,-2.7221375,-38.705864
429006917719112,0.07640268,0.22034734,9.8597,-9.987503E-6,0.0010986403,-0.0033458592,22.528393,-2.7221375,-38.705864
429006910264997,0.07640268,0.22034734,9.8597,-0.0016080095,-0.00156473,-0.0033458592,22.528393,-2.7221375,-38.705864
429006919134997,0.07640268,0.22034734,9.8597,-0.0016080095,-0.00156473,-0.0033458592,24.013378,-2.8330364,-38.363647
429006937719112,0.085983,0.22034734,9.890838,-0.0016080095,-0.00156473,-0.0033458592,24.013378,-2.8330364,-38.363647
429006939218539,0.085983,0.22034734,9.890838,0.0015880344,3.329292E-5,-0.0033458592,24.013378,-2.8330364,-38.363647
429006930348539,0.085983,0.22034734,9.890838,0.0015880344,3.329292E-5,-0.0033458592,24.369766,-2.2647314,-37.621834
429006957719112,0.08119284,0.19639653,9.8573065,0.0015880344,3.329292E-5,-0.0033458592,24.369766,-2.2647314,-37.621834
429006950432081,0.08119284,0.19639653,9.8573065,5.2268617E-4,-4.993826E-4,-0.002280511,24.369766,-2.2647314,-37.621834
429006959302081,0.08119284,0.19639653,9.8573065,5.2268617E-4,-4.993826E-4,-0.002280511,21.358202,-2.9765549,-39.32826
429006977719112,0.085983,0.1987916,9.912393,5.2268617E-4,-4.993826E-4,-0.002280511,21.358202,-2.9765549,-39.32826
429006970515674,0.085983,0.1987916,9.912393,-5.426621E-4,-0.0020974036,-0.0038785338,21.358202,-2.9765549,-39.32826
429006979385674,0.085983,0.1987916,9.912393,-5.426621E-4,-0.0020974036,-0.0038785338,23.001923,-3.1868877,-37.457752
429006997719112,0.069217436,0.210767,9.862096,-5.426621E-4,-0.0020974036,-0.0038785338,23.001923,-3.1868877,-37.457752
429006990599216,0.069217436,0.210767,9.862096,0.0026533827,0.0021639876,-0.0044112075,23.001923,-3.1868877,-37.457752
429006999469216,0.069217436,0.210767,9.862096,0.0026533827,0.0021639876,-0.0044112075,24.371634,-2.2836275,-39.44512
429007017719112,0.069217436,0.210767,9.862096,0.023427669,0.03199373,-0.025718171,24.371634,-2.2836275,-39.44512
429007010682758,0.11232888,0.11256872,10.11837,0.023427669,0.03199373,-0.025718171,24.371634,-2.2836275,-39.44512
429007019552758,0.11232888,0.11256872,10.11837,0.023427669,0.03199373,-0.025718171,24.660172,-3.1572418,-37.878242
429007037719112,-0.12717912,-0.24908835,9.936343,0.023427669,0.03199373,-0.025718171,24.660172,-3.1572418,-37.878242
429007030766352,-0.12717912,-0.24908835,9.936343,0.07136834,0.12947309,-0.12852426,24.660172,-3.1572418,-37.878242
429007039636352,-0.12717912,-0.24908835,9.936343,0.07136834,0.12947309,-0.12852426,23.082277,-1.48452,-38.598583
429007057719112,0.102748565,-0.040716395,9.122016,0.07136834,0.12947309,-0.12852426,23.082277,-1.48452,-38.598583
429007050849893,0.102748565,-0.040716395,9.122016,0.07030299,0.08739184,-0.17806296,23.082277,-1.48452,-38.598583
429007059719893,0.102748565,-0.040716395,9.122016,0.07030299,0.08739184,-0.17806296,23.852465,-2.7115555,-37.764767
429007077719112,0.1578354,0.42392913,10.542299,0.07030299,0.08739184,-0.17806296,23.852465,-2.7115555,-37.764767
429007070933435,0.1578354,0.42392913,10.542299,-0.0074674245,-0.07613909,-0.14290647,23.852465,-2.7115555,-37.764767
429007079803435,0.1578354,0.42392913,10.542299,-0.0074674245,-0.07613909,-0.14290647,24.500969,-3.0530834,-38.95071
429007097719112,0.205737,0.2466932,9.759108,-0.0074674245,-0.07613909,-0.14290647,24.500969,-3.0530834,-38.95071
429007091016977,0.205737,0.2466932,9.759108,0.075629726,0.096979976,-0.1461025,24.500969,-3.0530834,-38.95071
429007099886977,0.205737,0.2466932,9.759108,0.075629726,0.096979976,-0.1461025,23.081966,-1.48137,-38.294697
429007117719112,0.205737,0.2466932,9.759108,-0.00693475,-0.051103413,-0.32561365,23.081966,-1.48137,-38.294697
429007111100570,0.18897143,-0.7017585,9.265721,-0.00693475,-0.051103413,-0.32561365,23.081966,-1.48137,-38.294697
429007119970570,0.18897143,-0.7017585,9.265721,-0.00693475,-0.051103413,-0.32561365,23.236315,-1.7299261,-38.43182
429007137719112,-0.23974788,-0.07903768,10.664448,-0.00693475,-0.051103413,-0.32561365,23.236315,-1.7299261,-38.43182
429007140054112,-0.23974788,-0.07903768,10.664448,-0.09269528,-0.17628181,-0.6207151,23.236315,-1.7299261,-38.43182
429007131184112,-0.23974788,-0.07903768,10.664448,-0.09269528,-0.17628181,-0.6207151,22.719793,-2.1846237,-39.334457
429007157719112,-0.9870128,0.059876963,9.840541,-0.09269528,-0.17628181,-0.6207151,22.719793,-2.1846237,-39.334457
429007151267654,-0.9870128,0.059876963,9.840541,0.055920787,0.069280915,-0.65746963,22.719793,-2.1846237,-39.334457
429007160137654,-0.9870128,0.059876963,9.840541,0.055920787,0.069280915,-0.65746963,22.719482,-2.1814747,-39.03057
429007177719112,-0.06011688,-2.1316214,9.21303,0.055920787,0.069280915,-0.65746963,22.719482,-2.1814747,-39.03057
429007171351195,-0.06011688,-2.1316214,9.21303,-0.023447644,-0.020740995,-0.37089095,22.719482,-2.1814747,-39.03057
429007180221195,-0.06011688,-2.1316214,9.21303,-0.023447644,-0.020740995,-0.37089095,23.58222,-1.442543,-39.349472
429007197719112,0.9793479,-2.9196024,10.218964,-0.023447644,-0.020740995,-0.37089095,23.58222,-1.442543,-39.349472
429007191434737,0.9793479,-2.9196024,10.218964,-0.023447644,-0.097446054,-0.33946317,23.58222,-1.442543,-39.349472
429007200304737,0.9793479,-2.9196024,10.218964,-0.023447644,-0.097446054,-0.33946317,24.07059,-1.6704626,-40.69624
429007217719112,-0.3235757,-2.1364114,9.490859,-0.023447644,-0.097446054,-0.33946317,24.07059,-1.6704626,-40.69624
429007211518279,-0.3235757,-2.1364114,9.490859,0.12250504,0.028265016,-0.50991887,24.07059,-1.6704626,-40.69624
429007220388279,-0.3235757,-2.1364114,9.490859,0.12250504,0.028265016,-0.50991887,23.9569,-0.4788394,-38.62548
429007237719112,-1.2025701,-2.6226125,10.175852,0.12250504,0.028265016,-0.50991887,23.9569,-0.4788394,-38.62548
429007240471820,-1.2025701,-2.6226125,10.175852,0.08361983,-0.016479606,-0.48594853,23.9569,-0.4788394,-38.62548
429007231601820,-1.2025701,-2.6226125,10.175852,0.08361983,-0.016479606,-0.48594853,22.75028,-1.5256271,-39.364166
429007257719112,-2.7138658,-3.6692626,11.215316,0.08361983,-0.016479606,-0.48594853,22.75028,-1.5256271,-39.364166
429007251685362,-2.7138658,-3.6692626,11.215316,0.010643493,-4.993826E-4,-0.4944713,22.75028,-1.5256271,-39.364166
429007260555362,-2.7138658,-3.6692626,11.215316,0.010643493,-4.993826E-4,-0.4944713,21.991198,-0.023968697,-39.146275
429007277719112,-3.2791042,-4.7614193,10.024961,0.010643493,-4.993826E-4,-0.4944713,21.991198,-0.023968697,-39.146275
429007271768904,-3.2791042,-4.7614193,10.024961,0.045799978,0.17208701,-0.3703583,21.991198,-0.023968697,-39.146275
429007280638904,-3.2791042,-4.7614193,10.024961,0.045799978,0.17208701,-0.3703583,23.72778,1.7285147,-38.73237
429007297719112,-1.8947482,-5.812859,9.454933,0.045799978,0.17208701,-0.3703583,23.72778,1.7285147,-38.73237
429007291852445,-1.8947482,-5.812859,9.454933,0.08681589,0.2338772,-0.07578953,23.72778,1.7285147,-38.73237
429007300722445,-1.8947482,-5.812859,9.454933,0.08681589,0.2338772,-0.07578953,23.889782,1.5960112,-40.394836
429007317719112,-1.4732141,-5.1997185,9.715997,0.08681589,0.2338772,-0.07578953,23.889782,1.5960112,-40.394836
429007311936039,-1.4732141,-5.1997185,9.715997,0.044734634,0.15078007,0.16018507,23.889782,1.5960112,-40.394836
429007320806039,-1.4732141,-5.1997185,9.715997,0.044734634,0.15078007,0.16018507,23.299156,-0.43082952,-40.314526
429007337719112,-1.4732141,-5.1997185,9.715997,0.033015803,0.069280915,0.43078345,23.299156,-0.43082952,-40.314526
429007332019581,-1.7510433,-4.076426,9.692045,0.033015803,0.069280915,0.43078345,23.299156,-0.43082952,-40.314526
429007340889581,-1.7510433,-4.076426,9.692045,0.033015803,0.069280915,0.43078345,23.786125,-0.6445775,-40.293827
429007357719112,-1.0133587,-2.7711077,9.807009,0.033015803,0.069280915,0.43078345,23.786125,-0.6445775,-40.293827
429007352103122,-1.0133587,-2.7711077,9.807009,0.025558367,0.075673,0.67634624,23.786125,-0.6445775,-40.293827
429007360973122,-1.0133587,-2.7711077,9.807009,0.025558367,0.075673,0.67634624,24.018652,0.83128023,-39.444603
429007377719112,-0.36189696,-2.4046605,9.648934,0.025558367,0.075673,0.67634624,24.018652,0.83128023,-39.444603
429007372186664,-0.36189696,-2.4046605,9.648934,0.013306863,0.05702941,0.77169484,24.018652,0.83128023,-39.444603
429007381056664,-0.36189696,-2.4046605,9.648934,0.013306863,0.05702941,0.77169484,23.199997,1.000771,-40.534767
429007397719112,0.1578354,-1.825051,10.489607,0.013306863,0.05702941,0.77169484,23.199997,1.000771,-40.534767
429007392270206,0.1578354,-1.825051,10.489607,0.0058494266,-0.00156473,0.7567801,23.199997,1.000771,-40.534767
429007401140206,0.1578354,-1.825051,10.489607,0.0058494266,-0.00156473,0.7567801,22.22668,1.4219694,-41.18393
429007417719112,0.1578354,-1.825051,10.489607,0.037277196,0.04158187,0.62041545,22.22668,1.4219694,-41.18393
429007412353747,0.5123073,-0.7975617,9.454933,0.037277196,0.04158187,0.62041545,22.22668,1.4219694,-41.18393
429007421223747,0.5123073,-0.7975617,9.454933,0.037277196,0.04158187,0.62041545,20.087404,1.7394466,-40.638138
429007437719112,1.0224591,0.77840096,9.768688,0.037277196,0.04158187,0.62041545,20.087404,1.7394466,-40.638138
429007432437289,1.0224591,0.77840096,9.768688,0.027689062,-0.03352517,0.47606078,20.087404,1.7394466,-40.638138
429007441307289,1.0224591,0.77840096,9.768688,0.027689062,-0.03352517,0.47606078,22.400566,1.5562124,-42.5544
429007457719112,0.21531731,1.9783361,10.489607,0.027689062,-0.03352517,0.47606078,22.400566,1.5562124,-42.5544
429007452520831,0.21531731,1.9783361,10.489607,0.05698614,-0.023937041,0.34715366,22.400566,1.5562124,-42.5544
429007461390831,0.21531731,1.9783361,10.489607,0.05698614,-0.023937041,0.34715366,20.491188,-0.34153795,-42.661427
429007477719112,-0.46009526,1.8106805,10.068073,0.05698614,-0.023937041,0.34715366,20.491188,-0.34153795,-42.661427
429007472604372,-0.46009526,1.8106805,10.068073,0.07456438,-0.05589748,0.29974565,20.491188,-0.34153795,-42.661427
429007481474372,-0.46009526,1.8106805,10.068073,0.07456438,-0.05589748,0.29974565,22.084839,1.930975,-41.36258
429007497719112,0.7063087,2.99385,9.124412,0.07456438,-0.05589748,0.29974565,22.084839,1.930975,-41.36258
429007492687914,0.7063087,2.99385,9.124412,0.104926795,0.013882818,0.30081105,22.084839,1.930975,-41.36258
429007501557914,0.7063087,2.99385,9.124412,0.104926795,0.013882818,0.30081105,19.207932,0.5893698,-41.820827
429007517719112,0.7063087,2.99385,9.124412,0.04153859,-0.091586635,0.25926244,19.207932,0.5893698,-41.820827
429007512771456,2.4451368,4.217736,10.8967705,0.04153859,-0.091586635,0.25926244,19.207932,0.5893698,-41.820827
429007521641456,2.4451368,4.217736,10.8967705,0.04153859,-0.091586635,0.25926244,23.031868,0.8082638,-44.78611
429007537719112,2.0116272,4.981766,10.144715,0.04153859,-0.091586635,0.25926244,23.031868,0.8082638,-44.78611
429007541724945,2.0116272,4.981766,10.144715,0.09533867,-0.022339018,-0.008672601,23.031868,0.8082638,-44.78611
429007532854945,2.0116272,4.981766,10.144715,0.09533867,-0.022339018,-0.008672601,20.801598,-0.85597277,-44.607014
429007557719112,0.08119284,4.229711,9.66091,0.09533867,-0.022339018,-0.008672601,20.801598,-0.85597277,-44.607014
429007552938487,0.08119284,4.229711,9.66091,0.08894658,-0.07347572,-0.23505907,20.801598,-0.85597277,-44.607014
429007561808487,0.08119284,4.229711,9.66091,0.08894658,-0.07347572,-0.23505907,21.16455,-0.16059303,-44.326965
429007577719112,-0.393033,4.3255143,9.371105,0.08894658,-0.07347572,-0.23505907,21.16455,-0.16059303,-44.326965
429007573022029,-0.393033,4.3255143,9.371105,0.10545947,0.010154098,-0.158354,21.16455,-0.16059303,-44.326965
429007581892029,-0.393033,4.3255143,9.371105,0.10545947,0.010154098,-0.158354,21.506874,0.16300869,-41.749973
429007597719112,1.1901149,5.2691755,9.902812,0.10545947,0.010154098,-0.158354,21.506874,0.16300869,-41.749973
429007593105570,1.1901149,5.2691755,9.902812,0.117178306,0.014948165,-0.13278566,21.506874,0.16300869,-41.749973
429007601975570,1.1901149,5.2691755,9.902812,0.117178306,0.014948165,-0.13278566,21.538763,0.8078327,-43.147152
429007617719112,2.2295794,6.176911,9.888442,0.117178306,0.014948165,-0.13278566,21.538763,0.8078327,-43.147152
429007613189060,2.2295794,6.176911,9.888442,0.14168131,0.04584326,-0.27287894,21.538763,0.8078327,-43.147152
429007622059060,2.2295794,6.176911,9.888442,0.14168131,0.04584326,-0.27287894,20.029076,0.39468336,-43.161716
429007637719112,0.835643,5.3027067,9.409426,0.14168131,0.04584326,-0.27287894,20.029076,0.39468336,-43.161716
429007642142602,0.835643,5.3027067,9.409426,0.16298828,0.05170267,-0.44919404,20.029076,0.39468336,-43.161716
429007633272602,0.835643,5.3027067,9.409426,0.16298828,0.05170267,-0.44919404,20.842724,0.08236885,-43.129196
429007657719112,0.054846957,3.2764692,9.093276,0.16298828,0.05170267,-0.44919404,20.842724,0.08236885,-43.129196
429007653356143,0.054846957,3.2764692,9.093276,0.09960006,0.06342151,-0.3165582,20.842724,0.08236885,-43.129196
429007662226143,0.054846957,3.2764692,9.093276,0.09960006,0.06342151,-0.3165582,23.142447,-0.35186577,-43.81805
429007677719112,0.5003319,2.6274025,9.5363655,0.09960006,0.06342151,-0.3165582,23.142447,-0.35186577,-43.81805
429007673439685,0.5003319,2.6274025,9.5363655,0.045267306,0.09484927,-0.11787077,23.142447,-0.35186577,-43.81805
429007682309685,0.5003319,2.6274025,9.5363655,0.045267306,0.09484927,-0.11787077,20.042828,0.64253426,-44.69301
429007697719112,0.61529565,2.5052538,9.811799,0.045267306,0.09484927,-0.11787077,20.042828,0.64253426,-44.69301
429007693523174,0.61529565,2.5052538,9.811799,0.02182965,0.068215564,0.06217305,20.042828,0.64253426,-44.69301
429007702393174,0.61529565,2.5052538,9.811799,0.02182965,0.068215564,0.06217305,20.042828,0.64253426,-44.69301
429007717719112,0.61529565,2.5052538,9.811799,0.012241515,0.03199373,0.11597312,20.042828,0.64253426,-44.69301
429007713606716,0.07640268,1.9304345,9.926764,0.012241515,0.03199373,0.11597312,20.042828,0.64253426,-44.69301
429007722476716,0.07640268,1.9304345,9.926764,0.012241515,0.03199373,0.11597312,20.990353,-0.2916875,-42.65261
429007737719112,0.42847943,1.0514401,9.852516,0.012241515,0.03199373,0.11597312,20.990353,-0.2916875,-42.65261
429007742560258,0.42847943,1.0514401,9.852516,0.021296974,0.021340253,0.13355137,20.990353,-0.2916875,-42.65261
429007733690258,0.42847943,1.0514401,9.852516,0.021296974,0.021340253,0.13355137,18.17473,-0.31844854,-43.47416
429007757719112,0.8428283,0.9029451,9.862096,0.021296974,0.021340253,0.13355137,18.17473,-0.31844854,-43.47416
429007753773799,0.8428283,0.9029451,9.862096,0.0042514047,0.008556075,0.13461672,18.17473,-0.31844854,-43.47416
429007762643799,0.8428283,0.9029451,9.862096,0.0042514047,0.008556075,0.13461672,20.829128,-0.16705656,-41.749847
429007777719112,0.57218426,0.7185239,9.919579,0.0042514047,0.008556075,0.13461672,20.829128,-0.16705656,-41.749847
429007773857341,0.57218426,0.7185239,9.919579,-0.0042713797,0.014415491,0.032875974,20.829128,-0.16705656,-41.749847
429007782727341,0.57218426,0.7185239,9.919579,-0.0042713797,0.014415491,0.032875974,21.204897,0.7856221,-42.089443
429007797719112,0.53865314,0.390398,9.883652,-0.0042713797,0.014415491,0.032875974,21.204897,0.7856221,-42.089443
429007793940831,0.53865314,0.390398,9.883652,0.0015880344,0.010686774,0.0019808803,21.204897,0.7856221,-42.089443
429007802810831,0.53865314,0.390398,9.883652,0.0015880344,0.010686774,0.0019808803,20.332144,-0.23895311,-43.885834
429007817719112,0.53865314,0.390398,9.883652,0.0047840783,0.0010986403,0.040333413,20.332144,-0.23895311,-43.885834
429007814024372,0.7542103,0.4047685,9.914787,0.0047840783,0.0010986403,0.040333413,20.332144,-0.23895311,-43.885834
429007822894372,0.7542103,0.4047685,9.914787,0.0047840783,0.0010986403,0.040333413,21.033813,0.6230345,-43.453907
429007837719112,-0.012215279,0.6466715,9.840541,0.0047840783,0.0010986403,0.040333413,21.033813,0.6230345,-43.453907
429007842977914,-0.012215279,0.6466715,9.840541,0.007980123,0.0016313139,0.012101688,21.033813,0.6230345,-43.453907
429007834107914,-0.012215279,0.6466715,9.840541,0.007980123,0.0016313139,0.012101688,21.994621,-0.058612347,-42.48898
429007857719112,-0.00742512,0.55086833,9.876467,0.007980123,0.0016313139,0.012101688,21.994621,-0.058612347,-42.48898
429007854191456,-0.00742512,0.55086833,9.876467,-0.0042713797,0.010686774,0.0035789032,21.994621,-0.058612347,-42.48898
429007863061456,-0.00742512,0.55086833,9.876467,-0.0042713797,0.010686774,0.0035789032,21.064611,1.2788815,-43.787495
429007877719112,-0.20382169,0.34728655,9.924368,-0.0042713797,0.010686774,0.0035789032,21.064611,1.2788815,-43.787495
429007874274945,-0.20382169,0.34728655,9.924368,-0.005336728,0.024003623,0.027549235,21.064611,1.2788815,-43.787495
429007883144945,-0.20382169,0.34728655,9.924368,-0.005336728,0.024003623,0.027549235,20.315096,-0.6469493,-45.083538
429007897719112,-0.56068856,-0.043111473,9.8573065,-0.005336728,0.024003623,0.027549235,20.315096,-0.6469493,-45.083538
429007894358487,-0.56068856,-0.043111473,9.8573065,-0.006402076,0.024536299,0.13142069,20.315096,-0.6469493,-45.083538
429007903228487,-0.56068856,-0.043111473,9.8573065,-0.006402076,0.024536299,0.13142069,20.314629,-0.64222527,-44.627712
429007917719112,-0.56068856,-0.043111473,9.8573065,-0.01332684,0.022938276,0.349817,20.314629,-0.64222527,-44.627712
429007914442029,-0.02898084,-0.32333583,9.898023,-0.01332684,0.022938276,0.349817,20.314629,-0.64222527,-44.627712
429007923312029,-0.02898084,-0.32333583,9.898023,-0.01332684,0.022938276,0.349817,21.477165,-0.5038614,-42.47997
429007937719112,0.49314657,-0.4335095,9.850121,-0.01332684,0.022938276,0.349817,21.477165,-0.5038614,-42.47997
429007934525570,0.49314657,-0.4335095,9.850121,-0.018120907,0.013350142,0.7232216,21.477165,-0.5038614,-42.47997
429007943395570,0.49314657,-0.4335095,9.850121,-0.018120907,0.013350142,0.7232216,21.04554,0.89135695,-43.009968
429007957719112,2.4116056,-0.44308984,9.893231,-0.018120907,0.013350142,0.7232216,21.04554,0.89135695,-43.009968
429007954609060,2.4116056,-0.44308984,9.893231,-0.036764495,-0.031394474,1.2841275,21.04554,0.89135695,-43.009968
429007963479060,2.4116056,-0.44308984,9.893231,-0.036764495,-0.031394474,1.2841275,21.833242,0.06759262,-41.43427
429007977719112,3.7552452,0.031136,10.527928,-0.036764495,-0.031394474,1.2841275,21.833242,0.06759262,-41.43427
429007974692602,3.7552452,0.031136,10.527928,-0.051146697,-0.11076291,1.5755,21.833242,0.06759262,-41.43427
429007983562602,3.7552452,0.031136,10.527928,-0.051146697,-0.11076291,1.5755,22.705236,-2.617814,-42.96321
429007997719112,5.7599273,-0.08622292,10.26926,-0.051146697,-0.11076291,1.5755,22.705236,-2.617814,-42.96321
429007994776143,5.7599273,-0.08622292,10.26926,-0.03942787,-0.105436176,1.5712388,22.705236,-2.617814,-42.96321
429008003646143,5.7599273,-0.08622292,10.26926,-0.03942787,-0.105436176,1.5712388,23.584087,-1.4614391,-41.17276
429008017719112,7.95382,0.57242405,8.853768,-0.03942787,-0.105436176,1.5712388,23.584087,-1.4614391,-41.17276
429008014859633,7.95382,0.57242405,8.853768,-0.002140685,-0.063354924,1.2004976,23.584087,-1.4614391,-41.17276
429008023729633,7.95382,0.57242405,8.853768,-0.002140685,-0.063354924,1.2004976,21.060116,-2.3933086,-43.466248
429008037719112,7.185,1.4394431,9.09088,-0.002140685,-0.063354924,1.2004976,21.060116,-2.3933086,-43.466248
429008043813174,7.185,1.4394431,9.09088,-0.053810064,-0.15337682,0.20120096,21.060116,-2.3933086,-43.466248
429008034943174,7.185,1.4394431,9.09088,-0.053810064,-0.15337682,0.20120096,21.041824,-2.7887058,-43.448425
429008057719112,5.4318013,2.0334227,9.102856,-0.053810064,-0.15337682,0.20120096,21.041824,-2.7887058,-43.448425
429008055026664,5.4318013,2.0334227,9.102856,-0.03729717,-0.16722636,-0.9429829,21.041824,-2.7887058,-43.448425
429008063896664,5.4318013,2.0334227,9.102856,-0.03729717,-0.16722636,-0.9429829,19.215475,-2.817646,-41.359516
429008077719112,1.887083,1.3316643,10.132741,-0.03729717,-0.16722636,-0.9429829,19.215475,-2.817646,-41.359516
429008075110206,1.887083,1.3316643,10.132741,-0.062865525,-0.13206987,-1.659962,19.215475,-2.817646,-41.359516
429008083980206,1.887083,1.3316643,10.132741,-0.062865525,-0.13206987,-1.659962,19.480043,-0.69853926,-42.059414
429008097719112,0.5147023,0.541288,10.650078,-0.062865525,-0.13206987,-1.659962,19.480043,-0.69853926,-42.059414
429008095193747,0.5147023,0.541288,10.650078,-0.07831307,-0.13047184,-1.6588967,19.480043,-0.69853926,-42.059414
429008104063747,0.5147023,0.541288,10.650078,-0.07831307,-0.13047184,-1.6588967,20.522453,0.3095851,-43.45084
429008117719112,0.5147023,0.541288,10.650078,-0.037829842,-0.06442027,-1.238617,20.522453,0.3095851,-43.45084
429008115277237,1.2571771,0.3209407,9.390266,-0.037829842,-0.06442027,-1.238617,20.522453,0.3095851,-43.45084
429008124147237,1.2571771,0.3209407,9.390266,-0.037829842,-0.06442027,-1.238617,18.994476,-0.49896288,-43.44758
429008137719112,1.1613739,-0.07185244,9.931553,-0.037829842,-0.06442027,-1.238617,18.994476,-0.49896288,-43.44758
429008144230779,1.1613739,-0.07185244,9.931553,-0.058604132,-0.05003807,-0.86148375,18.994476,-0.49896288,-43.44758
429008135360779,1.1613739,-0.07185244,9.931553,-0.058604132,-0.05003807,-0.86148375,19.399176,1.1284604,-42.297474
429008157719112,-0.12478404,0.7137338,10.130345,-0.058604132,-0.05003807,-0.86148375,19.399176,1.1284604,-42.297474
429008155444268,-0.12478404,0.7137338,10.130345,-0.09642398,-0.0036954265,-0.6255092,19.399176,1.1284604,-42.297474
429008164314268,-0.12478404,0.7137338,10.130345,-0.09642398,-0.0036954265,-0.6255092,18.758636,1.582891,-42.940765
429008177719112,-1.0373095,0.6275109,10.080049,-0.09642398,-0.0036954265,-0.6255092,18.758636,1.582891,-42.940765
429008175527810,-1.0373095,0.6275109,10.080049,-0.10494678,0.030395715,-0.47316438,18.758636,1.582891,-42.940765
429008184397810,-1.0373095,0.6275109,10.080049,-0.10494678,0.030395715,-0.47316438,19.110325,2.0052242,-43.560474
429008197719112,-0.38584778,0.13412444,8.77952,-0.10494678,0.030395715,-0.47316438,19.110325,2.0052242,-43.560474
429008195611299,-0.38584778,0.13412444,8.77952,-0.06659424,0.065019526,-0.21108873,19.110325,2.0052242,-43.560474
429008204481299,-0.38584778,0.13412444,8.77952,-0.06659424,0.065019526,-0.21108873,21.019283,0.38305616,-41.16291
429008217719112,-0.38584778,0.13412444,8.77952,-0.08097644,-0.009554841,0.06909782,21.019283,0.38305616,-41.16291
429008215694841,-0.213402,-0.107778646,10.190222,-0.08097644,-0.009554841,0.06909782,21.019283,0.38305616,-41.16291
429008224564841,-0.213402,-0.107778646,10.190222,-0.08097644,-0.009554841,0.06909782,20.450356,2.434826,-40.35809
429008237719112,-1.1905947,-0.24190313,10.092024,-0.08097644,-0.009554841,0.06909782,20.450356,2.434826,-40.35809
429008235778383,-1.1905947,-0.24190313,10.092024,-0.106012136,0.069813594,0.09466617,20.450356,2.434826,-40.35809
429008244648383,-1.1905947,-0.24190313,10.092024,-0.106012136,0.069813594,0.09466617,20.143059,2.9177666,-41.45132
429008257719112,-3.0467818,-1.437048,10.132741,-0.106012136,0.069813594,0.09466617,20.143059,2.9177666,-41.45132
429008255861872,-3.0467818,-1.437048,10.132741,-0.11986165,0.08313045,-0.034240957,20.143059,2.9177666,-41.45132
429008264731872,-3.0467818,-1.437048,10.132741,-0.11986165,0.08313045,-0.034240957,20.47319,2.9777703,-38.862446
429008277719112,-4.49341,-1.0274893,9.756712,-0.11986165,0.08313045,-0.034240957,20.47319,2.9777703,-38.862446
429008275945414,-4.49341,-1.0274893,9.756712,-0.11346957,0.034124434,-0.012401318,20.47319,2.9777703,-38.862446
429008284815414,-4.49341,-1.0274893,9.756712,-0.11346957,0.034124434,-0.012401318,21.670727,3.729464,-41.1507
429008297719112,-4.5916085,-0.2921998,10.039331,-0.11346957,0.034124434,-0.012401318,21.670727,3.729464,-41.1507
429008296028904,-4.5916085,-0.2921998,10.039331,-0.16567162,-0.043645978,-0.023054797,21.670727,3.729464,-41.1507
429008304898904,-4.5916085,-0.2921998,10.039331,-0.16567162,-0.043645978,-0.023054797,17.82489,2.9581783,-40.5927
429008317719112,-4.5916085,-0.2921998,10.039331,-0.05274472,0.05276802,-0.21481748,17.82489,2.9581783,-40.5927
429008316112445,-6.0597925,-0.34728667,9.598638,-0.05274472,0.05276802,-0.21481748,17.82489,2.9581783,-40.5927
429008324982445,-6.0597925,-0.34728667,9.598638,-0.05274472,0.05276802,-0.21481748,20.961716,2.7482753,-40.361156
429008337719112,-7.0848866,0.87420416,9.8573065,-0.05274472,0.05276802,-0.21481748,20.961716,2.7482753,-40.361156
429008336195935,-7.0848866,0.87420416,9.8573065,-0.051679373,0.117221594,-0.2036313,20.961716,2.7482753,-40.361156
429008345065935,-7.0848866,0.87420416,9.8573065,-0.051679373,0.117221594,-0.2036313,19.62952,2.6263638,-39.32108
429008357719112,-5.480183,1.7484083,9.921973,-0.051679373,0.117221594,-0.2036313,19.62952,2.6263638,-39.32108
429008365149477,-5.480183,1.7484083,9.921973,-0.029839735,0.24133463,0.08720873,19.62952,2.6263638,-39.32108
429008356279477,-5.480183,1.7484083,9.921973,-0.029839735,0.24133463,0.08720873,20.521969,4.032165,-38.90998
429008377719112,-3.1904867,1.8154706,10.223753,-0.029839735,0.24133463,0.08720873,20.521969,4.032165,-38.90998
429008376362966,-3.1904867,1.8154706,10.223753,-0.031437755,0.194992,0.25233766,20.521969,4.032165,-38.90998
429008385232966,-3.1904867,1.8154706,10.223753,-0.031437755,0.194992,0.25233766,20.521969,4.032165,-38.90998
429008397719112,-1.6408697,0.76163536,9.694441,-0.031437755,0.194992,0.25233766,20.521969,4.032165,-38.90998
429008396446508,-1.6408697,0.76163536,9.694441,-0.0048040543,0.07886906,0.21132179,20.521969,4.032165,-38.90998
429008405316508,-1.6408697,0.76163536,9.694441,-0.0048040543,0.07886906,0.21132179,19.106434,2.044592,-39.76195
429008417719112,-1.6408697,0.76163536,9.694441,-0.012794166,0.0053600324,0.36419925,19.106434,2.044592,-39.76195
429008416530049,-1.7318828,0.76163536,9.869282,-0.012794166,0.0053600324,0.36419925,19.106434,2.044592,-39.76195
429008425400049,-1.7318828,0.76163536,9.869282,-0.012794166,0.0053600324,0.36419925,18.841665,3.451702,-40.744835
429008437719112,-0.76427037,0.8789942,9.823775,-0.012794166,0.0053600324,0.36419925,18.841665,3.451702,-40.744835
429008445483539,-0.76427037,0.8789942,9.823775,0.012241515,-0.014881581,0.632667,18.841665,3.451702,-40.744835
429008436613539,-0.76427037,0.8789942,9.823775,0.012241515,-0.014881581,0.632667,20.143059,2.9177666,-41.45132
429008457719112,0.6895432,0.53649783,9.809404,0.012241515,-0.014881581,0.632667,20.143059,2.9177666,-41.45132
429008456697081,0.6895432,0.53649783,9.809404,0.023960344,-0.004760774,0.6731502,20.143059,2.9177666,-41.45132
429008465567081,0.6895432,0.53649783,9.809404,0.023960344,-0.004760774,0.6731502,18.422747,1.581152,-39.90782
429008477719112,1.1446083,0.3329161,9.7806635,0.023960344,-0.004760774,0.6731502,18.422747,1.581152,-39.90782
429008476780570,1.1446083,0.3329161,9.7806635,0.022362322,-0.0052934494,0.4824529,18.422747,1.581152,-39.90782
429008485650570,1.1446083,0.3329161,9.7806635,0.022362322,-0.0052934494,0.4824529,20.604393,2.1894188,-40.191326
429008497719112,0.3614172,0.7065486,10.048912,0.022362322,-0.0052934494,0.4824529,20.604393,2.1894188,-40.191326
429008496864112,0.3614172,0.7065486,10.048912,0.010643493,0.01707886,0.27257928,20.604393,2.1894188,-40.191326
429008505734112,0.3614172,0.7065486,10.048912,0.010643493,0.01707886,0.27257928,21.486202,3.3158748,-41.28775
429008517719112,0.18657637,1.2909482,10.075258,0.010643493,0.01707886,0.27257928,21.486202,3.3158748,-41.28775
429008516947602,0.18657637,1.2909482,10.075258,0.0074474486,-0.005826123,0.08294734,21.486202,3.3158748,-41.28775
429008525817602,0.18657637,1.2909482,10.075258,0.0074474486,-0.005826123,0.08294734,21.966295,2.978201,-40.501404
429008537719112,0.73025954,1.7196674,9.883652,0.0074474486,-0.005826123,0.08294734,21.966295,2.978201,-40.501404
429008545901143,0.73025954,1.7196674,9.883652,-0.0048040543,0.0016313139,-0.18179168,21.966295,2.978201,-40.501404
429008537031143,0.73025954,1.7196674,9.883652,-0.0048040543,0.0016313139,-0.18179168,18.293255,2.3521814,-40.250294
429008557719112,0.085983,2.0669541,9.622588,-0.0048040543,0.0016313139,-0.18179168,18.293255,2.3521814,-40.250294
429008557114633,0.085983,2.0669541,9.622588,-0.0048040543,0.024003623,-0.4587822,18.293255,2.3521814,-40.250294
429008565984633,0.085983,2.0669541,9.622588,-0.0048040543,0.024003623,-0.4587822,20.419403,1.7805538,-39.87256
429008577719112,-1.1834093,3.9734375,9.629773,-0.0048040543,0.024003623,-0.4587822,20.419403,1.7805538,-39.87256
429008577198122,-1.1834093,3.9734375,9.629773,-0.026111014,0.020807581,-0.49340594,20.419403,1.7805538,-39.87256
429008586068122,-1.1834093,3.9734375,9.629773,-0.026111014,0.020807581,-0.49340594,20.289131,2.5594568,-39.455322
429008597719112,-1.3678306,5.436832,9.409426,-0.026111014,0.020807581,-0.49340594,20.289131,2.5594568,-39.455322
429008597281664,-1.3678306,5.436832,9.409426,-0.014924861,0.004827358,-0.22760165,20.289131,2.5594568,-39.455322
429008606151664,-1.3678306,5.436832,9.409426,-0.014924861,0.004827358,-0.22760165,20.14088,2.9398127,-39.324146
429008617719112,-1.3678306,5.436832,9.409426,-0.060734827,0.054898717,0.08401269,20.14088,2.9398127,-39.324146
429008617365154,-0.6469115,4.1794147,10.070467,-0.060734827,0.054898717,0.08401269,20.14088,2.9398127,-39.324146
429008626235154,-0.6469115,4.1794147,10.070467,-0.060734827,0.054898717,0.08401269,20.450356,2.434826,-40.35809
429008637719112,0.21052715,3.654892,10.123159,-0.060734827,0.054898717,0.08401269,20.450356,2.434826,-40.35809
429008637448695,0.21052715,3.654892,10.123159,-0.062865525,0.044245236,0.1820247,20.450356,2.434826,-40.35809
429008646318695,0.21052715,3.654892,10.123159,-0.062865525,0.044245236,0.1820247,20.652395,3.2516873,-39.479153
429008657719112,-0.7331343,3.5399282,9.807009,-0.062865525,0.044245236,0.1820247,20.652395,3.2516873,-39.479153
429008657532185,-0.7331343,3.5399282,9.807009,-0.027176362,0.023470951,0.107983015,20.652395,3.2516873,-39.479153
429008666402185,-0.7331343,3.5399282,9.807009,-0.027176362,0.023470951,0.107983015,22.914131,2.0408292,-38.76489
429008677719112,-1.8372662,5.0464334,9.335178,-0.027176362,0.023470951,0.107983015,22.914131,2.0408292,-38.76489
429008677615674,-1.8372662,5.0464334,9.335178,-0.03303578,0.08206509,0.05631363,22.914131,2.0408292,-38.76489
429008686485674,-1.8372662,5.0464334,9.335178,-0.03303578,0.08206509,0.05631363,23.129921,3.1055417,-39.417248
429008697719112,-2.3210726,4.1458836,9.706416,-0.03303578,0.08206509,0.05631363,23.129921,3.1055417,-39.417248
429008697699216,-2.3210726,4.1458836,9.706416,-0.01226149,0.07514033,-0.07685488,23.129921,3.1055417,-39.417248
429008706569216,-2.3210726,4.1458836,9.706416,-0.01226149,0.07514033,-0.07685488,23.030762,4.5371428,-39.637486
429008717719112,-2.3210726,4.1458836,9.706416,0.042603936,0.1086988,-0.18179168,23.030762,4.5371428,-39.637486
429008717782706,-2.3905296,2.8357747,9.301647,0.042603936,0.1086988,-0.18179168,23.030762,4.5371428,-39.637486
429008726652706,-2.3905296,2.8357747,9.301647,0.042603936,0.1086988,-0.18179168,21.292934,2.797256,-38.83587
429008737719112,-0.8576785,1.8490016,10.527928,0.042603936,0.1086988,-0.18179168,21.292934,2.797256,-38.83587
429008746736247,-0.8576785,1.8490016,10.527928,0.022894997,-4.993826E-4,-0.10402125,21.292934,2.797256,-38.83587
429008737866247,-0.8576785,1.8490016,10.527928,0.022894997,-4.993826E-4,-0.10402125,22.344894,4.0957484,-37.656185
429008757719112,-1.113952,1.4538136,9.917183,0.022894997,-4.993826E-4,-0.10402125,22.344894,4.0957484,-37.656185
429008757949737,-1.113952,1.4538136,9.917183,0.054322768,-0.053766787,-0.043829087,22.344894,4.0957484,-37.656185
429008766819737,-1.113952,1.4538136,9.917183,0.054322768,-0.053766787,-0.043829087,21.206436,4.4877315,-39.523815
429008777719112,-1.3079536,1.6573954,11.040476,0.054322768,-0.053766787,-0.043829087,21.206436,4.4877315,-39.523815
429008778033227,-1.3079536,1.6573954,11.040476,0.030885108,0.02506897,0.08880675,21.206436,4.4877315,-39.523815
429008786903227,-1.3079536,1.6573954,11.040476,0.030885108,0.02506897,0.08880675,23.460363,3.162396,-37.132256
429008797719112,-1.6049435,0.2347178,11.239267,0.030885108,0.02506897,0.08880675,23.460363,3.162396,-37.132256
429008798116768,-1.6049435,0.2347178,11.239267,0.12836446,0.03625513,0.2459456,23.460363,3.162396,-37.132256
429008806986768,-1.6049435,0.2347178,11.239267,0.12836446,0.03625513,0.2459456,23.961395,3.1933498,-38.946728
429008817719112,-2.0983298,-0.6131406,8.722037,0.12836446,0.03625513,0.2459456,23.961395,3.1933498,-38.946728
429008818200258,-2.0983298,-0.6131406,8.722037,0.09533867,-0.07880247,0.49949843,23.961395,3.1933498,-38.946728
429008827070258,-2.0983298,-0.6131406,8.722037,0.09533867,-0.07880247,0.49949843,24.391151,1.817028,-36.593437
429008837719112,-2.273171,-0.059877038,9.706416,0.09533867,-0.07880247,0.49949843,24.391151,1.817028,-36.593437
429008847153747,-2.273171,-0.059877038,9.706416,0.059649505,-0.15390952,0.8185702,24.391151,1.817028,-36.593437
429008838283747,-2.273171,-0.059877038,9.706416,0.059649505,-0.15390952,0.8185702,25.5554,1.9380703,-36.117043
429008857719112,-0.9870128,-0.5915848,9.419006,0.059649505,-0.15390952,0.8185702,25.5554,1.9380703,-36.117043
429008858367289,-0.9870128,-0.5915848,9.419006,0.09533867,-0.05429946,0.9623923,25.5554,1.9380703,-36.117043
429008867237289,-0.9870128,-0.5915848,9.419006,0.09533867,-0.05429946,0.9623923,24.02929,1.1106253,-37.937077
429008877719112,-0.031375922,-1.7148772,9.821381,0.09533867,-0.05429946,0.9623923,24.02929,1.1106253,-37.937077
429008878450779,-0.031375922,-1.7148772,9.821381,0.039940566,-0.07933514,0.92457235,24.02929,1.1106253,-37.937077
429008887320779,-0.031375922,-1.7148772,9.821381,0.039940566,-0.07933514,0.92457235,23.987076,0.1833067,-38.351307
429008897719112,0.3494418,-1.9400147,9.581873,0.039940566,-0.07933514,0.92457235,23.987076,0.1833067,-38.351307
429008898534268,0.3494418,-1.9400147,9.581873,-0.01918625,-0.14645207,0.8068514,23.987076,0.1833067,-38.351307
429008907404268,0.3494418,-1.9400147,9.581873,-0.01918625,-0.14645207,0.8068514,25.279415,-0.4525094,-36.164974
429008917719112,0.3494418,-1.9400147,9.581873,-0.051146697,-0.083063856,0.71256804,25.279415,-0.4525094,-36.164974
429008918617758,0.20813209,-1.7603838,9.53397,-0.051146697,-0.083063856,0.71256804,25.279415,-0.4525094,-36.164974
429008927487758,0.20813209,-1.7603838,9.53397,-0.051146697,-0.083063856,0.71256804,23.001923,-3.1868877,-37.457752
429008937719112,0.8428283,-1.674161,9.890838,-0.051146697,-0.083063856,0.71256804,23.001923,-3.1868877,-37.457752
429008947571299,0.8428283,-1.674161,9.890838,-0.056473438,-0.06921434,0.6459838,23.001923,-3.1868877,-37.457752
429008938701299,0.8428283,-1.674161,9.890838,-0.056473438,-0.06921434,0.6459838,25.157467,-3.0884953,-36.04614
429008957719112,1.5829079,-1.0298843,10.11358,-0.056473438,-0.06921434,0.6459838,25.157467,-3.0884953,-36.04614
429008958784789,1.5829079,-1.0298843,10.11358,-0.09748933,-0.10224013,0.58579165,25.157467,-3.0884953,-36.04614
429008967654789,1.5829079,-1.0298843,10.11358,-0.09748933,-0.10224013,0.58579165,24.58778,-4.746708,-38.566647
429008977719112,1.314659,-1.6621855,9.907603,-0.09748933,-0.10224013,0.58579165,24.58778,-4.746708,-38.566647
429008978868279,1.314659,-1.6621855,9.907603,-0.09908736,-0.074008405,0.6161541,24.58778,-4.746708,-38.566647
429008987738279,1.314659,-1.6621855,9.907603,-0.09908736,-0.074008405,0.6161541,24.267199,-4.516342,-38.584408
429008997719112,-0.088857844,-2.8333795,9.4669075,-0.09908736,-0.074008405,0.6161541,24.267199,-4.516342,-38.584408
429008998951768,-0.088857844,-2.8333795,9.4669075,-0.11560026,0.01920956,0.7232216,24.267199,-4.516342,-38.584408
429009007821768,-0.088857844,-2.8333795,9.4669075,-0.11560026,0.01920956,0.7232216,22.738441,-5.3170166,-37.821445
429009017719112,-0.21100691,-3.829733,9.562712,-0.11560026,0.01920956,0.7232216,22.738441,-5.3170166,-37.821445
429009019035310,-0.21100691,-3.829733,9.562712,-0.10761015,0.012284795,0.82549495,22.738441,-5.3170166,-37.821445
429009027905310,-0.21100691,-3.829733,9.562712,-0.10761015,0.012284795,0.82549495,22.597067,-4.8127365,-38.455917
429009037719112,0.22250256,-3.472866,9.280091,-0.10761015,0.012284795,0.82549495,22.597067,-4.8127365,-38.455917
429009039118799,0.22250256,-3.472866,9.280091,-0.0633982,0.03092839,0.79726326,22.597067,-4.8127365,-38.455917
429009047988799,0.22250256,-3.472866,9.280091,-0.0633982,0.03092839,0.79726326,22.684343,-6.5110846,-38.52767
429009057719112,1.3194492,-3.6045952,10.1782465,-0.0633982,0.03092839,0.79726326,22.684343,-6.5110846,-38.52767
429009059202289,1.3194492,-3.6045952,10.1782465,-0.059669483,0.009088753,0.6827383,22.684343,-6.5110846,-38.52767
429009068072289,1.3194492,-3.6045952,10.1782465,-0.059669483,0.009088753,0.6827383,21.63254,-7.8111525,-39.859303
429009077719112,2.0451584,-3.4393346,10.252495,-0.059669483,0.009088753,0.6827383,21.63254,-7.8111525,-39.859303
429009079285779,2.0451584,-3.4393346,10.252495,-0.01226149,0.088989854,0.36952594,21.63254,-7.8111525,-39.859303
429009088155779,2.0451584,-3.4393346,10.252495,-0.01226149,0.088989854,0.36952594,21.472094,-7.694395,-39.71624
429009097719112,1.585303,-2.038213,9.701626,-0.01226149,0.088989854,0.36952594,21.472094,-7.694395,-39.71624
429009099369320,1.585303,-2.038213,9.701626,0.048463352,0.09325126,-0.021456778,21.472094,-7.694395,-39.71624
429009108239320,1.585303,-2.038213,9.701626,0.048463352,0.09325126,-0.021456778,21.724312,-5.8373117,-40.252308
429009117719112,1.585303,-2.038213,9.701626,-0.027709037,-0.007424144,-0.16954018,21.724312,-5.8373117,-40.252308
429009119452810,1.527821,-0.58200455,9.66091,-0.027709037,-0.007424144,-0.16954018,21.724312,-5.8373117,-40.252308
429009128322810,1.527821,-0.58200455,9.66091,-0.027709037,-0.007424144,-0.16954018,20.670174,-7.113758,-39.304817
429009137719112,1.3002886,-1.199935,9.931553,-0.027709037,-0.007424144,-0.16954018,20.670174,-7.113758,-39.304817
429009148406299,1.3002886,-1.199935,9.931553,-0.05221204,0.011752121,-0.30910078,20.670174,-7.113758,-39.304817
429009139536299,1.3002886,-1.199935,9.931553,-0.05221204,0.011752121,-0.30910078,21.977043,-7.509596,-39.409485
429009157719112,0.9865331,-1.5208758,5.80004,-0.05221204,0.011752121,-0.30910078,21.977043,-7.509596,-39.409485
429009159619789,0.9865331,-1.5208758,5.80004,-0.13264582,-0.0031627528,-0.4193643,21.977043,-7.509596,-39.409485
429009168489789,0.9865331,-1.5208758,5.80004,-0.13264582,-0.0031627528,-0.4193643,21.502892,-7.0385475,-40.049828
429009177719112,0.25842875,-1.1232926,10.432125,-0.13264582,-0.0031627528,-0.4193643,21.502892,-7.0385475,-40.049828
429009179703279,0.25842875,-1.1232926,10.432125,-0.12572105,-0.11981836,-0.34851864,21.502892,-7.0385475,-40.049828
429009188573279,0.25842875,-1.1232926,10.432125,-0.12572105,-0.11981836,-0.34851864,21.997671,-7.1378183,-41.70642
429009197719112,-0.08406768,0.10059332,9.931553,-0.12572105,-0.11981836,-0.34851864,21.997671,-7.1378183,-41.70642
429009199786820,-0.08406768,0.10059332,9.931553,0.023960344,-0.01594693,-0.23559174,21.997671,-7.1378183,-41.70642
429009208656820,-0.08406768,0.10059332,9.931553,0.023960344,-0.01594693,-0.23559174,22.870735,-6.116392,-40.213913
429009217719112,-0.08406768,0.10059332,9.931553,0.006914775,5.6596566E-4,-0.20256597,22.870735,-6.116392,-40.213913
429009219870310,0.18897143,0.5556585,10.060888,0.006914775,5.6596566E-4,-0.20256597,22.870735,-6.116392,-40.213913
429009228740310,0.18897143,0.5556585,10.060888,0.006914775,5.6596566E-4,-0.20256597,21.076897,-5.5068054,-40.129948
429009237719112,-0.19903153,0.117358886,9.871676,0.006914775,5.6596566E-4,-0.20256597,21.076897,-5.5068054,-40.129948
429009248823799,-0.19903153,0.117358886,9.871676,-0.014392187,0.007490728,-0.15728866,21.076897,-5.5068054,-40.129948
429009239953799,-0.19903153,0.117358886,9.871676,-0.014392187,0.007490728,-0.15728866,22.408,-5.373871,-40.106438
429009257719112,-0.19903153,0.117358886,9.871676,-0.014924861,0.009088753,-0.058743957,22.408,-5.373871,-40.106438
429009260037289,-0.34273633,-0.3736325,9.878861,-0.014924861,0.009088753,-0.058743957,22.408,-5.373871,-40.106438
429009268907289,-0.34273633,-0.3736325,9.878861,-0.014924861,0.009088753,-0.058743957,20.87268,-6.3016224,-38.881706
429009277719112,-0.2014266,-0.26106375,9.905208,-0.014924861,0.009088753,-0.058743957,20.87268,-6.3016224,-38.881706
429009280120779,-0.2014266,-0.26106375,9.905208,-0.021849625,0.010686774,0.00837297,20.87268,-6.3016224,-38.881706
429009288990779,-0.2014266,-0.26106375,9.905208,-0.021849625,0.010686774,0.00837297,21.224371,-5.8792887,-39.50142
429009297719112,-0.25651345,0.050296642,9.862096,-0.021849625,0.010686774,0.00837297,21.224371,-5.8792887,-39.50142
429009300204268,-0.25651345,0.050296642,9.862096,-0.018120907,0.007490728,0.00837297,21.224371,-5.8792887,-39.50142
429009309074268,-0.25651345,0.050296642,9.862096,-0.018120907,0.007490728,0.00837297,20.991533,-7.3519964,-40.04676
429009317719112,-0.25651345,0.050296642,9.862096,-0.015457534,0.0032293359,0.006242274,20.991533,-7.3519964,-40.04676
429009320287758,-0.10801847,0.17244573,9.852516,-0.015457534,0.0032293359,0.006242274,20.991533,-7.3519964,-40.04676
429009329157758,-0.10801847,0.17244573,9.852516,-0.015457534,0.0032293359,0.006242274,21.694603,-6.504182,-40.982304
429009337719112,-0.01940052,0.122149035,9.912393,-0.015457534,0.0032293359,0.006242274,21.694603,-6.504182,-40.982304
429009349241299,-0.01940052,0.122149035,9.912393,-0.020251602,-0.0010320563,-1.4981447E-4,21.694603,-6.504182,-40.982304
429009340371299,-0.01940052,0.122149035,9.912393,-0.020251602,-0.0010320563,-1.4981447E-4,22.365007,-6.293318,-39.760963
