time,aX,aY,aZ,wX,wY,wZ,mX,mY,mZ
488591946221225,0.0141306,-0.7185241,9.816589,4.561015E-4,-2.7299486E-4,0.003951776,-154.32712,-27.004826,-82.00018
488591957580652,0.0141306,-0.7185241,9.816589,4.561015E-4,-2.7299486E-4,0.0034191022,-154.32712,-27.004826,-82.00018
488591948710652,0.02131584,-0.7233142,9.833356,4.561015E-4,-2.7299486E-4,0.0034191022,-154.32712,-27.004826,-82.00018
488591966221225,0.02131584,-0.7233142,9.833356,4.561015E-4,-2.7299486E-4,0.0034191022,-153.68002,-27.332182,-81.81867
488591977658829,0.02131584,-0.7233142,9.833356,-7.657218E-5,-2.7299486E-4,0.0034191022,-153.68002,-27.332182,-81.81867
488591968788829,0.026106,-0.73528963,9.828565,-7.657218E-5,-2.7299486E-4,0.0034191022,-153.68002,-27.332182,-81.81867
488591986221225,0.026106,-0.73528963,9.828565,-7.657218E-5,-2.7299486E-4,0.0034191022,-152.7189,-28.016977,-81.157616
488591997736850,0.026106,-0.73528963,9.828565,4.561015E-4,-2.7299486E-4,0.003951776,-152.7189,-28.016977,-81.157616
488591988866850,0.02131584,-0.7185241,9.818985,4.561015E-4,-2.7299486E-4,0.003951776,-152.7189,-28.016977,-81.157616
488592006221225,0.02131584,-0.7185241,9.818985,4.561015E-4,-2.7299486E-4,0.003951776,-153.97137,-26.430223,-80.65061
488592008944975,0.01892076,-0.70654863,9.82617,4.561015E-4,-2.7299486E-4,0.003951776,-153.97137,-26.430223,-80.65061
488592017814975,0.01892076,-0.70654863,9.82617,4.561015E-4,-2.7299486E-4,0.0034191022,-153.97137,-26.430223,-80.65061
488592026221225,0.01892076,-0.70654863,9.82617,4.561015E-4,-2.7299486E-4,0.0034191022,-154.70335,-27.95278,-81.204765
488592029023413,0.01892076,-0.716129,9.828565,4.561015E-4,-2.7299486E-4,0.0034191022,-154.70335,-27.95278,-81.204765
488592037893413,0.01892076,-0.716129,9.828565,-7.657218E-5,-2.7299486E-4,0.003951776,-154.70335,-27.95278,-81.204765
488592046221225,0.01892076,-0.716129,9.828565,-7.657218E-5,-2.7299486E-4,0.003951776,-152.13281,-26.137684,-82.751396
488592057972371,0.01892076,-0.716129,9.828565,-7.657218E-5,2.596788E-4,0.0034191022,-152.13281,-26.137684,-82.751396
488592049102371,0.026106,-0.7233142,9.835751,-7.657218E-5,2.596788E-4,0.0034191022,-152.13281,-26.137684,-82.751396
488592066221225,0.026106,-0.7233142,9.835751,-7.657218E-5,2.596788E-4,0.0034191022,-153.19963,-27.673006,-81.336205
488592078051954,0.026106,-0.7233142,9.835751,-7.657218E-5,-2.7299486E-4,0.003951776,-153.19963,-27.673006,-81.336205
488592069181954,0.01892076,-0.716129,9.828565,-7.657218E-5,-2.7299486E-4,0.003951776,-153.19963,-27.673006,-81.336205
488592086221225,0.01892076,-0.716129,9.828565,-7.657218E-5,-2.7299486E-4,0.003951776,-151.70103,-27.534477,-82.373344
488592098132319,0.01892076,-0.716129,9.828565,-7.657218E-5,2.596788E-4,0.003951776,-151.70103,-27.534477,-82.373344
488592089262319,0.016525678,-0.73289454,9.83096,-7.657218E-5,2.596788E-4,0.003951776,-151.70103,-27.534477,-82.373344
488592106221225,0.016525678,-0.73289454,9.83096,-7.657218E-5,2.596788E-4,0.003951776,-154.43927,-25.82895,-81.44884
488592109343517,0.0141306,-0.73528963,9.835751,-7.657218E-5,2.596788E-4,0.003951776,-154.43927,-25.82895,-81.44884
488592118213517,0.0141306,-0.73528963,9.835751,-7.657218E-5,-2.7299486E-4,0.0034191022,-154.43927,-25.82895,-81.44884
488592126221225,0.0141306,-0.73528963,9.835751,-7.657218E-5,-2.7299486E-4,0.0034191022,-152.54579,-27.87486,-81.76839
488592129425600,0.038081393,-0.716129,9.847726,-7.657218E-5,-2.7299486E-4,0.0034191022,-152.54579,-27.87486,-81.76839
488592138295600,0.038081393,-0.716129,9.847726,4.561015E-4,-2.7299486E-4,0.0034191022,-152.54579,-27.87486,-81.76839
488592146221225,0.038081393,-0.716129,9.847726,4.561015E-4,-2.7299486E-4,0.0034191022,-153.12381,-26.118185,-83.9905
488592158378517,0.038081393,-0.716129,9.847726,-7.657218E-5,-2.7299486E-4,0.0028864276,-153.12381,-26.118185,-83.9905
488592149508517,0.028501078,-0.7233142,9.821381,-7.657218E-5,-2.7299486E-4,0.0028864276,-153.12381,-26.118185,-83.9905
488592166221225,0.028501078,-0.7233142,9.821381,-7.657218E-5,-2.7299486E-4,0.0028864276,-154.64082,-26.650534,-82.78359
488592178462267,0.028501078,-0.7233142,9.821381,-7.657218E-5,2.596788E-4,0.0034191022,-154.64082,-26.650534,-82.78359
488592169592267,0.0141306,-0.7233142,9.854912,-7.657218E-5,2.596788E-4,0.0034191022,-154.64082,-26.650534,-82.78359
488592186221225,0.0141306,-0.7233142,9.854912,-7.657218E-5,2.596788E-4,0.0034191022,-153.49487,-26.92489,-82.289375
488592198546694,0.0141306,-0.7233142,9.854912,-6.092468E-4,-2.7299486E-4,0.0034191022,-153.49487,-26.92489,-82.289375
488592189676694,0.02131584,-0.71133876,9.864491,-6.092468E-4,-2.7299486E-4,0.0034191022,-153.49487,-26.92489,-82.289375
488592206221225,0.02131584,-0.71133876,9.864491,-6.092468E-4,-2.7299486E-4,0.0034191022,-154.67178,-27.304806,-82.298065
488592209761642,0.028501078,-0.70415354,9.835751,-6.092468E-4,-2.7299486E-4,0.0034191022,-154.67178,-27.304806,-82.298065
488592218631642,0.028501078,-0.70415354,9.835751,-6.092468E-4,-2.7299486E-4,0.0034191022,-154.67178,-27.304806,-82.298065
488592226221225,0.028501078,-0.70415354,9.835751,-6.092468E-4,-2.7299486E-4,0.0034191022,-150.86832,-27.459267,-83.118355
488592229847059,0.030896157,-0.716129,9.828565,-6.092468E-4,-2.7299486E-4,0.0034191022,-150.86832,-27.459267,-83.118355
488592238717059,0.030896157,-0.716129,9.828565,-7.657218E-5,2.596788E-4,0.0034191022,-150.86832,-27.459267,-83.118355
488592246221225,0.030896157,-0.716129,9.828565,-7.657218E-5,2.596788E-4,0.0034191022,-153.76746,-25.632257,-81.59497
488592258802736,0.030896157,-0.716129,9.828565,-7.657218E-5,2.596788E-4,0.003951776,-153.76746,-25.632257,-81.59497
488592249932736,0.004550282,-0.72810435,9.838145,-7.657218E-5,2.596788E-4,0.003951776,-153.76746,-25.632257,-81.59497
488592266221225,0.004550282,-0.72810435,9.838145,-7.657218E-5,2.596788E-4,0.003951776,-152.84622,-27.267996,-83.627266
488592278888465,0.004550282,-0.72810435,9.838145,4.561015E-4,2.596788E-4,0.0034191022,-152.84622,-27.267996,-83.627266
488592270018465,0.0069453605,-0.7137339,9.864491,4.561015E-4,2.596788E-4,0.0034191022,-152.84622,-27.267996,-83.627266
488592286221225,0.0069453605,-0.7137339,9.864491,4.561015E-4,2.596788E-4,0.0034191022,-153.812,-26.535955,-79.73008
488592298974142,0.0069453605,-0.7137339,9.864491,-7.657218E-5,2.596788E-4,0.0034191022,-153.812,-26.535955,-79.73008
488592290104142,0.023710921,-0.72091913,9.8597,-7.657218E-5,2.596788E-4,0.0034191022,-153.812,-26.535955,-79.73008
488592306221225,0.023710921,-0.72091913,9.8597,-7.657218E-5,2.596788E-4,0.0034191022,-154.63066,-26.366465,-80.82025
488592310189611,0.03568632,-0.73528963,9.840541,-7.657218E-5,2.596788E-4,0.0034191022,-154.63066,-26.366465,-80.82025
488592319059611,0.03568632,-0.73528963,9.840541,-7.657218E-5,2.596788E-4,0.0034191022,-154.63066,-26.366465,-80.82025
488592326221225,0.03568632,-0.73528963,9.840541,-7.657218E-5,2.596788E-4,0.0034191022,-154.2674,-25.674234,-80.84408
488592330274715,0.030896157,-0.7089437,9.854912,-7.657218E-5,2.596788E-4,0.0034191022,-154.2674,-25.674234,-80.84408
488592339144715,0.030896157,-0.7089437,9.854912,4.561015E-4,-2.7299486E-4,0.003951776,-154.2674,-25.674234,-80.84408
488592346221225,0.030896157,-0.7089437,9.854912,4.561015E-4,-2.7299486E-4,0.003951776,-151.95987,-25.993994,-83.21023
488592350359350,0.002155196,-0.7257094,9.850121,4.561015E-4,-2.7299486E-4,0.003951776,-151.95987,-25.993994,-83.21023
488592359229350,0.002155196,-0.7257094,9.850121,-6.092468E-4,2.596788E-4,0.0034191022,-151.95987,-25.993994,-83.21023
488592366221225,0.002155196,-0.7257094,9.850121,-6.092468E-4,2.596788E-4,0.0034191022,-153.02728,-27.523014,-81.18726
488592370443413,0.02131584,-0.72091913,9.874072,-6.092468E-4,2.596788E-4,0.0034191022,-153.02728,-27.523014,-81.18726
488592379313413,0.02131584,-0.72091913,9.874072,-7.657218E-5,-2.7299486E-4,0.0034191022,-153.02728,-27.523014,-81.18726
488592386221225,0.02131584,-0.72091913,9.874072,-7.657218E-5,-2.7299486E-4,0.0034191022,-153.79872,-26.28338,-80.80556
488592399396954,0.02131584,-0.72091913,9.874072,4.561015E-4,-2.7299486E-4,0.0034191022,-153.79872,-26.28338,-80.80556
488592390526954,0.026106,-0.7233142,9.840541,4.561015E-4,-2.7299486E-4,0.0034191022,-153.79872,-26.28338,-80.80556
488592406221225,0.026106,-0.7233142,9.840541,4.561015E-4,-2.7299486E-4,0.0034191022,-153.21182,-27.936605,-81.32432
488592410609819,0.028501078,-0.70654863,9.840541,4.561015E-4,-2.7299486E-4,0.0034191022,-153.21182,-27.936605,-81.32432
488592419479819,0.028501078,-0.70654863,9.840541,-7.657218E-5,-8.0566853E-4,0.003951776,-153.21182,-27.936605,-81.32432
488592426221225,0.028501078,-0.70654863,9.840541,-7.657218E-5,-8.0566853E-4,0.003951776,-151.6518,-26.484806,-82.87669
488592430692111,0.0141306,-0.716129,9.84533,-7.657218E-5,-8.0566853E-4,0.003951776,-151.6518,-26.484806,-82.87669
488592439562111,0.0141306,-0.716129,9.84533,4.561015E-4,-2.7299486E-4,0.0028864276,-151.6518,-26.484806,-82.87669
488592446221225,0.0141306,-0.716129,9.84533,4.561015E-4,-2.7299486E-4,0.0028864276,-152.9782,-26.471767,-81.53868
488592450773881,0.028501078,-0.7137339,9.850121,4.561015E-4,-2.7299486E-4,0.0028864276,-152.9782,-26.471767,-81.53868
488592459643881,0.028501078,-0.7137339,9.850121,4.561015E-4,-2.7299486E-4,0.0034191022,-152.9782,-26.471767,-81.53868
488592466221225,0.028501078,-0.7137339,9.850121,4.561015E-4,-2.7299486E-4,0.0034191022,-153.16805,-27.025032,-82.4295
488592470855131,0.033291243,-0.7257094,9.850121,4.561015E-4,-2.7299486E-4,0.0034191022,-153.16805,-27.025032,-82.4295
488592479725131,0.033291243,-0.7257094,9.850121,4.561015E-4,2.596788E-4,0.0034191022,-153.16805,-27.025032,-82.4295
488592486221225,0.033291243,-0.7257094,9.850121,4.561015E-4,2.596788E-4,0.0034191022,-153.64891,-26.679483,-82.45614
488592499806017,0.033291243,-0.7257094,9.850121,9.887756E-4,-2.7299486E-4,0.0034191022,-153.64891,-26.679483,-82.45614
488592490936017,0.01892076,-0.7257094,9.850121,9.887756E-4,-2.7299486E-4,0.0034191022,-153.64891,-26.679483,-82.45614
488592506221225,0.01892076,-0.7257094,9.850121,9.887756E-4,-2.7299486E-4,0.0034191022,-152.96553,-26.212894,-82.006386
488592511016590,0.01892076,-0.73049945,9.850121,9.887756E-4,-2.7299486E-4,0.0034191022,-152.96553,-26.212894,-82.006386
488592519886590,0.01892076,-0.73049945,9.850121,-7.657218E-5,-2.7299486E-4,0.003951776,-152.96553,-26.212894,-82.006386
488592526221225,0.01892076,-0.73049945,9.850121,-7.657218E-5,-2.7299486E-4,0.003951776,-153.00713,-27.146511,-83.02838
488592531097006,0.016525678,-0.7185241,9.878861,-7.657218E-5,-2.7299486E-4,0.003951776,-153.00713,-27.146511,-83.02838
488592539967006,0.016525678,-0.7185241,9.878861,4.561015E-4,-2.7299486E-4,0.0034191022,-153.00713,-27.146511,-83.02838
488592546221225,0.016525678,-0.7185241,9.878861,4.561015E-4,-2.7299486E-4,0.0034191022,-152.50311,-26.952265,-81.80998
488592560047371,0.016525678,-0.7185241,9.878861,4.561015E-4,2.596788E-4,0.0028864276,-152.50311,-26.952265,-81.80998
488592551177371,0.033291243,-0.7185241,9.864491,4.561015E-4,2.596788E-4,0.0028864276,-152.50311,-26.952265,-81.80998
488592566221225,0.033291243,-0.7185241,9.864491,4.561015E-4,2.596788E-4,0.0028864276,-153.46391,-26.270618,-82.7749
488592580127788,0.033291243,-0.7185241,9.864491,-7.657218E-5,-2.7299486E-4,0.0034191022,-153.46391,-26.270618,-82.7749
488592571257788,0.02131584,-0.716129,9.828565,-7.657218E-5,-2.7299486E-4,0.0034191022,-153.46391,-26.270618,-82.7749
488592586221225,0.02131584,-0.716129,9.828565,-7.657218E-5,-2.7299486E-4,0.0034191022,-153.20917,-27.963375,-83.90732
488592600208413,0.02131584,-0.716129,9.828565,-7.657218E-5,-8.0566853E-4,0.0034191022,-153.20917,-27.963375,-83.90732
488592591338413,0.009340443,-0.72091913,9.8573065,-7.657218E-5,-8.0566853E-4,0.0034191022,-153.20917,-27.963375,-83.90732
488592606221225,0.009340443,-0.72091913,9.8573065,-7.657218E-5,-8.0566853E-4,0.0034191022,-153.63626,-26.42061,-82.92384
488592611419246,0.01892076,-0.7137339,9.842936,-7.657218E-5,-8.0566853E-4,0.0034191022,-153.63626,-26.42061,-82.92384
488592620289246,0.01892076,-0.7137339,9.842936,-7.657218E-5,-8.0566853E-4,0.0034191022,-153.63626,-26.42061,-82.92384
488592626221225,0.01892076,-0.7137339,9.842936,-7.657218E-5,-8.0566853E-4,0.0034191022,-154.96219,-26.412296,-82.04165
488592631500392,0.016525678,-0.7137339,9.847726,-7.657218E-5,-8.0566853E-4,0.0034191022,-154.96219,-26.412296,-82.04165
488592640370392,0.016525678,-0.7137339,9.847726,4.561015E-4,2.596788E-4,0.0034191022,-154.96219,-26.412296,-82.04165
488592646221225,0.016525678,-0.7137339,9.847726,4.561015E-4,2.596788E-4,0.0034191022,-152.84622,-27.267996,-83.627266
488592660451954,0.016525678,-0.7137339,9.847726,4.561015E-4,-2.7299486E-4,0.0034191022,-152.84622,-27.267996,-83.627266
488592651581954,0.016525678,-0.71133876,9.874072,4.561015E-4,-2.7299486E-4,0.0034191022,-152.84622,-27.267996,-83.627266
488592666221225,0.016525678,-0.71133876,9.874072,4.561015E-4,-2.7299486E-4,0.0034191022,-153.15038,-26.623333,-81.83956
488592680533934,0.016525678,-0.71133876,9.874072,-6.092468E-4,-2.7299486E-4,0.0034191022,-153.15038,-26.623333,-81.83956
488592671663934,0.026106,-0.7089437,9.8573065,-6.092468E-4,-2.7299486E-4,0.0034191022,-153.15038,-26.623333,-81.83956
488592686221225,0.026106,-0.7089437,9.8573065,-6.092468E-4,-2.7299486E-4,0.0034191022,-155.46104,-26.465296,-82.354355
488592691746329,-0.0026349612,-0.7233142,9.876467,-6.092468E-4,-2.7299486E-4,0.0034191022,-155.46104,-26.465296,-82.354355
488592700616329,-0.0026349612,-0.7233142,9.876467,-7.657218E-5,-2.7299486E-4,0.0034191022,-155.46104,-26.465296,-82.354355
488592706221225,-0.0026349612,-0.7233142,9.876467,-7.657218E-5,-2.7299486E-4,0.0034191022,-154.84366,-27.459524,-82.902824
488592711829142,0.02131584,-0.716129,9.871676,-7.657218E-5,-2.7299486E-4,0.0034191022,-154.84366,-27.459524,-82.902824
488592720699142,0.02131584,-0.716129,9.871676,-6.092468E-4,-2.7299486E-4,0.0028864276,-154.84366,-27.459524,-82.902824
488592726221225,0.02131584,-0.716129,9.871676,-6.092468E-4,-2.7299486E-4,0.0028864276,-154.47006,-26.484797,-81.11525
488592731912371,0.033291243,-0.72810435,9.835751,-6.092468E-4,-2.7299486E-4,0.0028864276,-154.47006,-26.484797,-81.11525
488592740782371,0.033291243,-0.72810435,9.835751,-7.657218E-5,-2.7299486E-4,0.0034191022,-154.47006,-26.484797,-81.11525
488592746221225,0.033291243,-0.72810435,9.835751,-7.657218E-5,-2.7299486E-4,0.0034191022,-154.54214,-28.077414,-82.10754
488592760865861,0.033291243,-0.72810435,9.835751,-6.092468E-4,2.596788E-4,0.003951776,-154.54214,-28.077414,-82.10754
488592751995861,0.016525678,-0.7185241,9.862096,-6.092468E-4,2.596788E-4,0.003951776,-154.54214,-28.077414,-82.10754
488592766221225,0.016525678,-0.7185241,9.862096,-6.092468E-4,2.596788E-4,0.003951776,-153.85814,-27.61712,-82.26555
488592780949663,0.016525678,-0.7185241,9.862096,-7.657218E-5,2.596788E-4,0.0034191022,-153.85814,-27.61712,-82.26555
488592772079663,0.01892076,-0.72091913,9.883652,-7.657218E-5,2.596788E-4,0.0034191022,-153.85814,-27.61712,-82.26555
488592786221225,0.01892076,-0.72091913,9.883652,-7.657218E-5,2.596788E-4,0.0034191022,-152.8176,-26.5901,-81.83369
488592801033673,0.01892076,-0.72091913,9.883652,-7.657218E-5,2.596788E-4,0.0034191022,-152.8176,-26.5901,-81.83369
488592792163673,0.028501078,-0.72810435,9.8573065,-7.657218E-5,2.596788E-4,0.0034191022,-152.8176,-26.5901,-81.83369
488592806221225,0.028501078,-0.72810435,9.8573065,-7.657218E-5,2.596788E-4,0.0034191022,-155.02286,-27.733438,-82.28612
488592812247736,0.033291243,-0.716129,9.828565,-7.657218E-5,2.596788E-4,0.0034191022,-155.02286,-27.733438,-82.28612
488592821117736,0.033291243,-0.716129,9.828565,-7.657218E-5,2.596788E-4,0.0034191022,-155.02286,-27.733438,-82.28612
488592826221225,0.033291243,-0.716129,9.828565,-7.657218E-5,2.596788E-4,0.0034191022,-152.96523,-26.216043,-82.31027
488592832331902,0.0117355175,-0.71133876,9.871676,-7.657218E-5,2.596788E-4,0.0034191022,-152.96523,-26.216043,-82.31027
488592841201902,0.0117355175,-0.71133876,9.871676,4.561015E-4,-8.0566853E-4,0.003951776,-152.96523,-26.216043,-82.31027
488592846221225,0.0117355175,-0.71133876,9.871676,4.561015E-4,-8.0566853E-4,0.003951776,-153.13866,-26.355013,-81.39562
488592861285965,0.0117355175,-0.71133876,9.871676,-7.657218E-5,-8.0566853E-4,0.0034191022,-153.13866,-26.355013,-81.39562
488592852415965,0.002155196,-0.72091913,9.8597,-7.657218E-5,-8.0566853E-4,0.0034191022,-153.13866,-26.355013,-81.39562
488592866221225,0.002155196,-0.72091913,9.8597,-7.657218E-5,-8.0566853E-4,0.0034191022,-154.61034,-25.991537,-82.8133
488592881369975,0.002155196,-0.72091913,9.8597,-7.657218E-5,-2.7299486E-4,0.0028864276,-154.61034,-25.991537,-82.8133
488592872499975,0.0141306,-0.72091913,9.876467,-7.657218E-5,-2.7299486E-4,0.0028864276,-154.61034,-25.991537,-82.8133
488592886221225,0.0141306,-0.72091913,9.876467,-7.657218E-5,-2.7299486E-4,0.0028864276,-152.66324,-26.838657,-81.970795
488592901453725,0.0141306,-0.72091913,9.876467,4.561015E-4,-2.7299486E-4,0.0034191022,-152.66324,-26.838657,-81.970795
488592892583725,0.033291243,-0.7257094,9.869282,4.561015E-4,-2.7299486E-4,0.0034191022,-152.66324,-26.838657,-81.970795
488592906221225,0.033291243,-0.7257094,9.869282,4.561015E-4,-2.7299486E-4,0.0034191022,-154.30882,-26.609426,-82.01801
488592912667267,0.028501078,-0.7233142,9.84533,4.561015E-4,-2.7299486E-4,0.0034191022,-154.30882,-26.609426,-82.01801
488592921537267,0.028501078,-0.7233142,9.84533,4.561015E-4,-8.0566853E-4,0.0034191022,-154.30882,-26.609426,-82.01801
488592926221225,0.028501078,-0.7233142,9.84533,4.561015E-4,-8.0566853E-4,0.0034191022,-153.9573,-26.185522,-82.48579
488592932750548,0.009340443,-0.7233142,9.862096,4.561015E-4,-8.0566853E-4,0.0034191022,-153.9573,-26.185522,-82.48579
488592941620548,0.009340443,-0.7233142,9.862096,4.561015E-4,-2.7299486E-4,0.0034191022,-153.9573,-26.185522,-82.48579
488592946221225,0.009340443,-0.7233142,9.862096,4.561015E-4,-2.7299486E-4,0.0034191022,-153.13756,-26.366035,-82.459206
488592961703569,0.009340443,-0.7233142,9.862096,-7.657218E-5,2.596788E-4,0.0034191022,-153.13756,-26.366035,-82.459206
488592952833569,0.0141306,-0.7185241,9.869282,-7.657218E-5,2.596788E-4,0.0034191022,-153.13756,-26.366035,-82.459206
488592966221225,0.0141306,-0.7185241,9.869282,-7.657218E-5,2.596788E-4,0.0034191022,-154.78957,-26.265457,-82.196594
488592972916225,0.01892076,-0.72091913,9.864491,-7.657218E-5,2.596788E-4,0.0034191022,-154.78957,-26.265457,-82.196594
488592981786225,0.01892076,-0.72091913,9.864491,-7.657218E-5,2.596788E-4,0.0028864276,-154.78957,-26.265457,-82.196594
488592986221225,0.01892076,-0.72091913,9.864491,-7.657218E-5,2.596788E-4,0.0028864276,-153.60468,-25.772636,-84.01714
488593001868621,0.01892076,-0.72091913,9.864491,-7.657218E-5,-8.0566853E-4,0.0028864276,-153.60468,-25.772636,-84.01714
488592992998621,0.0141306,-0.7233142,9.866886,-7.657218E-5,-8.0566853E-4,0.0028864276,-153.60468,-25.772636,-84.01714
488593006221225,0.0141306,-0.7233142,9.866886,-7.657218E-5,-8.0566853E-4,0.0028864276,-154.96219,-26.412296,-82.04165
488593013080756,0.0141306,-0.716129,9.871676,-7.657218E-5,-8.0566853E-4,0.0028864276,-154.96219,-26.412296,-82.04165
488593021950756,0.0141306,-0.716129,9.871676,-7.657218E-5,2.596788E-4,0.003951776,-154.96219,-26.412296,-82.04165
488593026221225,0.0141306,-0.716129,9.871676,-7.657218E-5,2.596788E-4,0.003951776,-150.16742,-26.589405,-81.92671
488593033162684,0.023710921,-0.73289454,9.883652,-7.657218E-5,2.596788E-4,0.003951776,-150.16742,-26.589405,-81.92671
488593042032684,0.023710921,-0.73289454,9.883652,-7.657218E-5,-2.7299486E-4,0.003951776,-150.16742,-26.589405,-81.92671
488593046221225,0.023710921,-0.73289454,9.883652,-7.657218E-5,-2.7299486E-4,0.003951776,-152.6648,-26.82291,-80.451385
488593062114402,0.023710921,-0.73289454,9.883652,-7.657218E-5,2.596788E-4,0.003951776,-152.6648,-26.82291,-80.451385
488593053244402,0.02131584,-0.72810435,9.871676,-7.657218E-5,2.596788E-4,0.003951776,-152.6648,-26.82291,-80.451385
488593066221225,0.02131584,-0.72810435,9.871676,-7.657218E-5,2.596788E-4,0.003951776,-153.77762,-25.916327,-83.55831
488593082195965,0.02131584,-0.72810435,9.871676,-6.092468E-4,2.596788E-4,0.0034191022,-153.77762,-25.916327,-83.55831
488593073325965,0.026106,-0.716129,9.874072,-6.092468E-4,2.596788E-4,0.0034191022,-153.77762,-25.916327,-83.55831
488593086221225,0.026106,-0.716129,9.874072,-6.092468E-4,2.596788E-4,0.0034191022,-154.81503,-26.781628,-81.109245
488593102277475,0.026106,-0.716129,9.874072,-7.657218E-5,-2.7299486E-4,0.003951776,-154.81503,-26.781628,-81.109245
488593093407475,0.01892076,-0.7185241,9.864491,-7.657218E-5,-2.7299486E-4,0.003951776,-154.81503,-26.781628,-81.109245
488593106221225,0.01892076,-0.7185241,9.864491,-7.657218E-5,-2.7299486E-4,0.003951776,-152.70639,-27.756527,-81.47339
488593113488986,0.023710921,-0.7185241,9.8573065,-7.657218E-5,-2.7299486E-4,0.003951776,-152.70639,-27.756527,-81.47339
488593122358986,0.023710921,-0.7185241,9.8573065,-7.657218E-5,-2.7299486E-4,0.0044844495,-152.70639,-27.756527,-81.47339
488593126221225,0.023710921,-0.7185241,9.8573065,-7.657218E-5,-2.7299486E-4,0.0044844495,-152.81697,-26.5964,-82.441444
488593142440496,0.023710921,-0.7185241,9.8573065,-7.657218E-5,-2.7299486E-4,0.0034191022,-152.81697,-26.5964,-82.441444
488593133570496,0.026106,-0.73289454,9.862096,-7.657218E-5,-2.7299486E-4,0.0034191022,-152.81697,-26.5964,-82.441444
488593146221225,0.026106,-0.73289454,9.862096,-7.657218E-5,-2.7299486E-4,0.0034191022,-150.30772,-26.096148,-83.62477
488593162522163,0.026106,-0.73289454,9.862096,-6.092468E-4,-2.7299486E-4,0.0034191022,-150.30772,-26.096148,-83.62477
488593153652163,0.023710921,-0.7257094,9.878861,-6.092468E-4,-2.7299486E-4,0.0034191022,-150.30772,-26.096148,-83.62477
488593166221225,0.023710921,-0.7257094,9.878861,-6.092468E-4,-2.7299486E-4,0.0034191022,-153.47502,-26.545238,-83.826614
488593173733881,0.02131584,-0.7137339,9.883652,-6.092468E-4,-2.7299486E-4,0.0034191022,-153.47502,-26.545238,-83.826614
488593182603881,0.02131584,-0.7137339,9.883652,-6.092468E-4,2.596788E-4,0.003951776,-153.47502,-26.545238,-83.826614
488593186221225,0.02131584,-0.7137339,9.883652,-6.092468E-4,2.596788E-4,0.003951776,-153.00635,-27.154385,-83.788086
488593193815809,0.009340443,-0.73049945,9.8597,-6.092468E-4,2.596788E-4,0.003951776,-153.00635,-27.154385,-83.788086
488593202685809,0.009340443,-0.73049945,9.8597,-0.0011419205,-2.7299486E-4,0.0034191022,-153.00635,-27.154385,-83.788086
488593206221225,0.009340443,-0.73049945,9.8597,-0.0011419205,-2.7299486E-4,0.0034191022,-153.1063,-25.714912,-83.24862
488593213897892,0.026106,-0.7089437,9.862096,-0.0011419205,-2.7299486E-4,0.0034191022,-153.1063,-25.714912,-83.24862
488593222767892,0.026106,-0.7089437,9.862096,-7.657218E-5,2.596788E-4,0.003951776,-153.1063,-25.714912,-83.24862
488593226221225,0.026106,-0.7089437,9.862096,-7.657218E-5,2.596788E-4,0.003951776,-152.8054,-26.326502,-81.845566
488593233980184,0.023710921,-0.7233142,9.8597,-7.657218E-5,2.596788E-4,0.003951776,-152.8054,-26.326502,-81.845566
488593242850184,0.023710921,-0.7233142,9.8597,-6.092468E-4,2.596788E-4,0.0034191022,-152.8054,-26.326502,-81.845566
488593246221225,0.023710921,-0.7233142,9.8597,-6.092468E-4,2.596788E-4,0.0034191022,-153.56834,-28.503332,-81.91419
488593254062684,0.026106,-0.73289454,9.866886,-6.092468E-4,2.596788E-4,0.0034191022,-153.56834,-28.503332,-81.91419
488593262932684,0.026106,-0.73289454,9.866886,-6.092468E-4,2.596788E-4,0.003951776,-153.56834,-28.503332,-81.91419
488593266221225,0.026106,-0.73289454,9.866886,-6.092468E-4,2.596788E-4,0.003951776,-153.1371,-26.37076,-82.91503
488593283015444,0.026106,-0.73289454,9.866886,-7.657218E-5,2.596788E-4,0.0034191022,-153.1371,-26.37076,-82.91503
488593274145444,0.023710921,-0.7233142,9.8597,-7.657218E-5,2.596788E-4,0.0034191022,-153.1371,-26.37076,-82.91503
488593286221225,0.023710921,-0.7233142,9.8597,-7.657218E-5,2.596788E-4,0.0034191022,-153.0941,-25.451315,-83.260506
488593303098309,0.023710921,-0.7233142,9.8597,-7.657218E-5,2.596788E-4,0.0034191022,-153.0941,-25.451315,-83.260506
488593294228309,0.028501078,-0.7257094,9.864491,-7.657218E-5,2.596788E-4,0.0034191022,-153.0941,-25.451315,-83.260506
488593306221225,0.028501078,-0.7257094,9.864491,-7.657218E-5,2.596788E-4,0.0034191022,-153.64845,-26.684208,-82.911964
488593314311381,0.016525678,-0.73049945,9.866886,-7.657218E-5,2.596788E-4,0.0034191022,-153.64845,-26.684208,-82.911964
488593323181381,0.016525678,-0.73049945,9.866886,-7.657218E-5,-2.7299486E-4,0.0034191022,-153.64845,-26.684208,-82.911964
488593326221225,0.016525678,-0.73049945,9.866886,-7.657218E-5,-2.7299486E-4,0.0034191022,-154.29663,-26.345829,-82.02989
488593343264559,0.016525678,-0.73049945,9.866886,-6.092468E-4,-2.7299486E-4,0.003951776,-154.29663,-26.345829,-82.02989
488593334394559,0.016525678,-0.72091913,9.869282,-6.092468E-4,-2.7299486E-4,0.003951776,-154.29663,-26.345829,-82.02989
488593346221225,0.016525678,-0.72091913,9.869282,-6.092468E-4,-2.7299486E-4,0.003951776,-153.54929,-28.115808,-82.69172
488593363347788,0.016525678,-0.72091913,9.869282,4.561015E-4,-2.7299486E-4,0.003951776,-153.54929,-28.115808,-82.69172
488593354477788,0.01892076,-0.72810435,9.874072,4.561015E-4,-2.7299486E-4,0.003951776,-153.54929,-28.115808,-82.69172
488593366221225,0.01892076,-0.72810435,9.874072,4.561015E-4,-2.7299486E-4,0.003951776,-154.01218,-27.371716,-82.43231
488593383431121,0.01892076,-0.72810435,9.874072,-7.657218E-5,2.596788E-4,0.003951776,-154.01218,-27.371716,-82.43231
488593374561121,0.01892076,-0.72810435,9.854912,-7.657218E-5,2.596788E-4,0.003951776,-154.01218,-27.371716,-82.43231
488593386221225,0.01892076,-0.72810435,9.854912,-7.657218E-5,2.596788E-4,0.003951776,-154.6599,-27.03806,-82.006065
488593394644454,0.030896157,-0.73528963,9.874072,-7.657218E-5,2.596788E-4,0.003951776,-154.6599,-27.03806,-82.006065
488593403514454,0.030896157,-0.73528963,9.874072,-7.657218E-5,2.596788E-4,0.003951776,-154.6599,-27.03806,-82.006065
488593406221225,0.030896157,-0.73528963,9.874072,-7.657218E-5,2.596788E-4,0.003951776,-153.16867,-27.018732,-81.82174
488593414727736,0.004550282,-0.71133876,9.8573065,-7.657218E-5,2.596788E-4,0.003951776,-153.16867,-27.018732,-81.82174
488593423597736,0.004550282,-0.71133876,9.8573065,4.561015E-4,2.596788E-4,0.0034191022,-153.16867,-27.018732,-81.82174
488593426221225,0.004550282,-0.71133876,9.8573065,4.561015E-4,2.596788E-4,0.0034191022,-152.48419,-26.563166,-82.43557
488593443680965,0.004550282,-0.71133876,9.8573065,4.561015E-4,2.596788E-4,0.0034191022,-152.48419,-26.563166,-82.43557
488593434810965,0.0117355175,-0.72091913,9.866886,4.561015E-4,2.596788E-4,0.0034191022,-152.48419,-26.563166,-82.43557
488593446221225,0.0117355175,-0.72091913,9.866886,4.561015E-4,2.596788E-4,0.0034191022,-154.04329,-28.024412,-81.79484
488593463764142,0.0117355175,-0.72091913,9.866886,9.887756E-4,-2.7299486E-4,0.0034191022,-154.04329,-28.024412,-81.79484
488593454894142,0.033291243,-0.72091913,9.878861,9.887756E-4,-2.7299486E-4,0.0034191022,-154.04329,-28.024412,-81.79484
488593466221225,0.033291243,-0.72091913,9.878861,9.887756E-4,-2.7299486E-4,0.0034191022,-154.84444,-27.45165,-82.14312
488593483847163,0.033291243,-0.72091913,9.878861,4.561015E-4,-2.7299486E-4,0.0034191022,-154.84444,-27.45165,-82.14312
488593474977163,0.030896157,-0.72091913,9.862096,4.561015E-4,-2.7299486E-4,0.0034191022,-154.84444,-27.45165,-82.14312
488593486221225,0.030896157,-0.72091913,9.862096,4.561015E-4,-2.7299486E-4,0.0034191022,-153.50784,-27.180614,-81.51779
488593503930027,0.030896157,-0.72091913,9.862096,-7.657218E-5,-2.7299486E-4,0.0034191022,-153.50784,-27.180614,-81.51779
488593495060027,0.0141306,-0.72091913,9.8597,-7.657218E-5,-2.7299486E-4,0.0034191022,-153.50784,-27.180614,-81.51779
488593506221225,0.0141306,-0.72091913,9.8597,-7.657218E-5,-2.7299486E-4,0.0034191022,-152.1633,-26.79668,-82.72169
488593515142788,0.009340443,-0.7185241,9.864491,-7.657218E-5,-2.7299486E-4,0.0034191022,-152.1633,-26.79668,-82.72169
488593524012788,0.009340443,-0.7185241,9.864491,-7.657218E-5,-2.7299486E-4,0.003951776,-152.1633,-26.79668,-82.72169
488593526221225,0.009340443,-0.7185241,9.864491,-7.657218E-5,-2.7299486E-4,0.003951776,-152.57706,-28.525984,-80.97897
488593535225392,0.033291243,-0.73049945,9.874072,-7.657218E-5,-2.7299486E-4,0.003951776,-152.57706,-28.525984,-80.97897
488593544095392,0.033291243,-0.73049945,9.874072,-7.657218E-5,2.596788E-4,0.0034191022,-152.57706,-28.525984,-80.97897
488593546221225,0.033291243,-0.73049945,9.874072,-7.657218E-5,2.596788E-4,0.0034191022,-152.57706,-28.525984,-80.97897
488593564177840,0.033291243,-0.73049945,9.874072,4.561015E-4,2.596788E-4,0.0034191022,-152.57706,-28.525984,-80.97897
488593555307840,0.038081393,-0.7137339,9.883652,4.561015E-4,2.596788E-4,0.0034191022,-152.57706,-28.525984,-80.97897
488593566221225,0.038081393,-0.7137339,9.883652,4.561015E-4,2.596788E-4,0.0034191022,-154.0311,-27.760813,-81.806725
488593584260131,0.038081393,-0.7137339,9.883652,-6.092468E-4,-2.7299486E-4,0.003951776,-154.0311,-27.760813,-81.806725
488593575390131,0.004550282,-0.72810435,9.854912,-6.092468E-4,-2.7299486E-4,0.003951776,-154.0311,-27.760813,-81.806725
488593586221225,0.004550282,-0.72810435,9.854912,-6.092468E-4,-2.7299486E-4,0.003951776,-152.87935,-27.90022,-81.014565
488593604342371,0.004550282,-0.72810435,9.854912,-7.657218E-5,2.596788E-4,0.003951776,-152.87935,-27.90022,-81.014565
488593595472371,0.004550282,-0.716129,9.869282,-7.657218E-5,2.596788E-4,0.003951776,-152.87935,-27.90022,-81.014565
488593606221225,0.004550282,-0.716129,9.869282,-7.657218E-5,2.596788E-4,0.003951776,-154.87415,-28.11852,-82.873116
488593615554506,0.038081393,-0.7185241,9.869282,-7.657218E-5,2.596788E-4,0.003951776,-154.87415,-28.11852,-82.873116
488593624424506,0.038081393,-0.7185241,9.869282,-7.657218E-5,2.596788E-4,0.003951776,-154.87415,-28.11852,-82.873116
488593626221225,0.038081393,-0.7185241,9.869282,-7.657218E-5,2.596788E-4,0.003951776,-152.97742,-26.479641,-82.298386
488593635636590,0.03568632,-0.7233142,9.874072,-7.657218E-5,2.596788E-4,0.003951776,-152.97742,-26.479641,-82.298386
488593644506590,0.03568632,-0.7233142,9.874072,-7.657218E-5,2.596788E-4,0.0034191022,-152.97742,-26.479641,-82.298386
488593646221225,0.03568632,-0.7233142,9.874072,-7.657218E-5,2.596788E-4,0.0034191022,-154.37057,-27.919546,-81.19889
488593664588621,0.03568632,-0.7233142,9.874072,4.561015E-4,-2.7299486E-4,0.0034191022,-154.37057,-27.919546,-81.19889
488593655718621,0.009340443,-0.7137339,9.8597,4.561015E-4,-2.7299486E-4,0.0034191022,-154.37057,-27.919546,-81.19889
488593666221225,0.009340443,-0.7137339,9.8597,4.561015E-4,-2.7299486E-4,0.0034191022,-154.80254,-26.521181,-81.42501
488593684670652,0.009340443,-0.7137339,9.8597,4.561015E-4,-2.7299486E-4,0.003951776,-154.80254,-26.521181,-81.42501
488593675800652,0.0069453605,-0.73049945,9.869282,4.561015E-4,-2.7299486E-4,0.003951776,-154.80254,-26.521181,-81.42501
488593686221225,0.0069453605,-0.73049945,9.869282,4.561015E-4,-2.7299486E-4,0.003951776,-152.84933,-27.236502,-80.58845
488593704752684,0.0069453605,-0.73049945,9.869282,-7.657218E-5,-8.0566853E-4,0.003951776,-152.84933,-27.236502,-80.58845
488593695882684,0.026106,-0.7185241,9.862096,-7.657218E-5,-8.0566853E-4,0.003951776,-152.84933,-27.236502,-80.58845
488593706221225,0.026106,-0.7185241,9.862096,-7.657218E-5,-8.0566853E-4,0.003951776,-154.45709,-26.229073,-81.88684
488593715964819,0.026106,-0.7185241,9.862096,-7.657218E-5,-8.0566853E-4,0.003951776,-154.45709,-26.229073,-81.88684
488593724834819,0.026106,-0.7185241,9.862096,-6.092468E-4,2.596788E-4,0.0034191022,-154.45709,-26.229073,-81.88684
488593726221225,0.026106,-0.7185241,9.862096,-6.092468E-4,2.596788E-4,0.0034191022,-151.81348,-26.35545,-81.51811
488593744916954,0.026106,-0.7185241,9.862096,-6.092468E-4,2.596788E-4,0.003951776,-151.81348,-26.35545,-81.51811
488593736046954,0.009340443,-0.73049945,9.8597,-6.092468E-4,2.596788E-4,0.003951776,-151.81348,-26.35545,-81.51811
488593746221225,0.009340443,-0.73049945,9.8597,-6.092468E-4,2.596788E-4,0.003951776,-153.9695,-26.44912,-82.4739
488593764999246,0.009340443,-0.73049945,9.8597,-7.657218E-5,2.596788E-4,0.003951776,-153.9695,-26.44912,-82.4739
488593756129246,0.01892076,-0.73049945,9.864491,-7.657218E-5,2.596788E-4,0.003951776,-153.9695,-26.44912,-82.4739
488593766221225,0.01892076,-0.73049945,9.864491,-7.657218E-5,2.596788E-4,0.003951776,-153.60577,-25.761614,-82.95355
488593776211590,0.023710921,-0.7137339,9.862096,-7.657218E-5,2.596788E-4,0.003951776,-153.60577,-25.761614,-82.95355
488593785081590,0.023710921,-0.7137339,9.862096,-7.657218E-5,-2.7299486E-4,0.003951776,-153.60577,-25.761614,-82.95355
488593786221225,0.023710921,-0.7137339,9.862096,-7.657218E-5,-2.7299486E-4,0.003951776,-152.47232,-26.29642,-82.14357
488593796294038,0.02131584,-0.7233142,9.869282,-7.657218E-5,-2.7299486E-4,0.003951776,-152.47232,-26.29642,-82.14357
488593805164038,0.02131584,-0.7233142,9.869282,-7.657218E-5,-2.7299486E-4,0.0034191022,-152.47232,-26.29642,-82.14357
488593806221225,0.02131584,-0.7233142,9.869282,-7.657218E-5,-2.7299486E-4,0.0034191022,-154.94437,-26.012175,-81.60365
488593816376538,0.028501078,-0.7233142,9.866886,-7.657218E-5,-2.7299486E-4,0.0034191022,-154.94437,-26.012175,-81.60365
488593825246538,0.028501078,-0.7233142,9.866886,-6.092468E-4,-8.0566853E-4,0.0034191022,-154.94437,-26.012175,-81.60365
488593826221225,0.028501078,-0.7233142,9.866886,-6.092468E-4,-8.0566853E-4,0.0034191022,-154.30852,-26.612576,-82.3219
488593836459194,0.02131584,-0.72091913,9.84533,-6.092468E-4,-8.0566853E-4,0.0034191022,-154.30852,-26.612576,-82.3219
488593845329194,0.02131584,-0.72091913,9.84533,-6.092468E-4,-2.7299486E-4,0.0034191022,-154.30852,-26.612576,-82.3219
488593846221225,0.02131584,-0.72091913,9.84533,-6.092468E-4,-2.7299486E-4,0.0034191022,-153.64813,-26.687357,-83.21584
488593865411954,0.02131584,-0.72091913,9.84533,-7.657218E-5,-2.7299486E-4,0.0034191022,-153.64813,-26.687357,-83.21584
488593856541954,0.0117355175,-0.7233142,9.8597,-7.657218E-5,-2.7299486E-4,0.0034191022,-153.64813,-26.687357,-83.21584
488593866221225,0.0117355175,-0.7233142,9.8597,-7.657218E-5,-2.7299486E-4,0.0034191022,-154.67209,-27.301657,-81.99418
488593885494715,0.0117355175,-0.7233142,9.8597,-7.657218E-5,-2.7299486E-4,0.0034191022,-154.67209,-27.301657,-81.99418
488593876624715,0.0141306,-0.72091913,9.8597,-7.657218E-5,-2.7299486E-4,0.0034191022,-154.67209,-27.301657,-81.99418
488593886221225,0.0141306,-0.72091913,9.8597,-7.657218E-5,-2.7299486E-4,0.0034191022,-153.0262,-27.534037,-82.250854
488593896707579,0.033291243,-0.7257094,9.866886,-7.657218E-5,-2.7299486E-4,0.0034191022,-153.0262,-27.534037,-82.250854
488593905577579,0.033291243,-0.7257094,9.866886,-7.657218E-5,-2.7299486E-4,0.0034191022,-153.0262,-27.534037,-82.250854
488593906221225,0.033291243,-0.7257094,9.866886,-7.657218E-5,-2.7299486E-4,0.0034191022,-153.46469,-26.262745,-82.0152
488593916790496,0.026106,-0.72091913,9.869282,-7.657218E-5,-2.7299486E-4,0.0034191022,-153.46469,-26.262745,-82.0152
488593925660496,0.026106,-0.72091913,9.869282,-7.657218E-5,-2.7299486E-4,0.003951776,-153.46469,-26.262745,-82.0152
488593926221225,0.026106,-0.72091913,9.869282,-7.657218E-5,-2.7299486E-4,0.003951776,-153.09598,-25.432419,-81.43721
488593936873413,0.016525678,-0.72091913,9.878861,-7.657218E-5,-2.7299486E-4,0.003951776,-153.09598,-25.432419,-81.43721
488593945743413,0.016525678,-0.72091913,9.878861,-7.657218E-5,-2.7299486E-4,0.0034191022,-153.09598,-25.432419,-81.43721
488593946221225,0.016525678,-0.72091913,9.878861,-7.657218E-5,-2.7299486E-4,0.0034191022,-153.84093,-27.2107,-81.21978
488593956956381,0.023710921,-0.72091913,9.871676,-7.657218E-5,-2.7299486E-4,0.0034191022,-153.84093,-27.2107,-81.21978
488593965826381,0.023710921,-0.72091913,9.871676,-7.657218E-5,-8.0566853E-4,0.0034191022,-153.84093,-27.2107,-81.21978
488593966221225,0.023710921,-0.72091913,9.871676,-7.657218E-5,-8.0566853E-4,0.0034191022,-151.86226,-27.409845,-81.47057
488593977039246,0.033291243,-0.72810435,9.8597,-7.657218E-5,-8.0566853E-4,0.0034191022,-151.86226,-27.409845,-81.47057
488593985909246,0.033291243,-0.72810435,9.8597,4.561015E-4,-2.7299486E-4,0.003951776,-151.86226,-27.409845,-81.47057
488593986221225,0.033291243,-0.72810435,9.8597,4.561015E-4,-2.7299486E-4,0.003951776,-153.59592,-25.474396,-80.686325
488593997122163,0.0117355175,-0.7017585,9.8573065,4.561015E-4,-2.7299486E-4,0.003951776,-153.59592,-25.474396,-80.686325
488594005992163,0.0117355175,-0.7017585,9.8573065,4.561015E-4,-8.0566853E-4,0.003951776,-153.59592,-25.474396,-80.686325
488594006221225,0.0117355175,-0.7017585,9.8573065,4.561015E-4,-8.0566853E-4,0.003951776,-152.58319,-25.133139,-82.80775
488594017204975,0.02131584,-0.73049945,9.847726,4.561015E-4,-8.0566853E-4,0.003951776,-152.58319,-25.133139,-82.80775
488594026074975,0.02131584,-0.73049945,9.847726,4.561015E-4,-2.7299486E-4,0.0034191022,-152.58319,-25.133139,-82.80775
488594026221225,0.02131584,-0.73049945,9.847726,4.561015E-4,-2.7299486E-4,0.0034191022,-153.7102,-27.99433,-82.09284
488594037287736,0.023710921,-0.72091913,9.876467,4.561015E-4,-2.7299486E-4,0.0034191022,-153.7102,-27.99433,-82.09284
488594046157736,0.023710921,-0.72091913,9.876467,4.561015E-4,-2.7299486E-4,0.0034191022,-153.7102,-27.99433,-82.09284
488594046221225,0.023710921,-0.72091913,9.876467,4.561015E-4,-2.7299486E-4,0.0034191022,-153.09628,-25.429268,-81.13333
488594057370444,0.02131584,-0.72091913,9.869282,4.561015E-4,-2.7299486E-4,0.0034191022,-153.09628,-25.429268,-81.13333
488594066240444,0.02131584,-0.72091913,9.869282,4.561015E-4,2.596788E-4,0.0034191022,-153.09628,-25.429268,-81.13333
488594066221225,0.02131584,-0.72091913,9.869282,4.561015E-4,2.596788E-4,0.0034191022,-152.84746,-27.255398,-82.411736
488594086323100,0.02131584,-0.72091913,9.869282,4.561015E-4,2.596788E-4,0.0034191022,-152.84746,-27.255398,-82.411736
488594077453100,0.0117355175,-0.72810435,9.876467,4.561015E-4,2.596788E-4,0.0034191022,-152.84746,-27.255398,-82.411736
488594086221225,0.0117355175,-0.72810435,9.876467,4.561015E-4,2.596788E-4,0.0034191022,-152.00287,-26.913439,-82.864746
488594106405652,0.0117355175,-0.72810435,9.876467,4.561015E-4,-2.7299486E-4,0.0034191022,-152.00287,-26.913439,-82.864746
488594097535652,0.01892076,-0.7185241,9.876467,4.561015E-4,-2.7299486E-4,0.0034191022,-152.00287,-26.913439,-82.864746
488594106221225,0.01892076,-0.7185241,9.876467,4.561015E-4,-2.7299486E-4,0.0034191022,-153.9706,-26.438097,-81.41032
488594126221225,0.01892076,-0.7185241,9.876467,4.561015E-4,-2.7299486E-4,0.0034191022,-154.51244,-27.410543,-81.37754
488594117618152,0.030896157,-0.73528963,9.850121,4.561015E-4,-2.7299486E-4,0.0034191022,-154.51244,-27.410543,-81.37754
488594126488152,0.030896157,-0.73528963,9.850121,-7.657218E-5,-2.7299486E-4,0.0034191022,-154.51244,-27.410543,-81.37754
488594137700548,0.028501078,-0.7089437,9.8597,-7.657218E-5,-2.7299486E-4,0.0034191022,-154.51244,-27.410543,-81.37754
488594146221225,0.028501078,-0.7089437,9.8597,-7.657218E-5,-2.7299486E-4,0.0034191022,-153.22964,-28.336725,-81.76232
488594146570548,0.028501078,-0.7089437,9.8597,4.561015E-4,-2.7299486E-4,0.003951776,-153.22964,-28.336725,-81.76232
488594157782944,0.023710921,-0.7257094,9.854912,4.561015E-4,-2.7299486E-4,0.003951776,-153.22964,-28.336725,-81.76232
488594166221225,0.023710921,-0.7257094,9.854912,4.561015E-4,-2.7299486E-4,0.003951776,-153.9831,-26.698544,-81.09455
488594166652944,0.023710921,-0.7257094,9.854912,4.561015E-4,-2.7299486E-4,0.0034191022,-153.9831,-26.698544,-81.09455
488594177865288,0.01892076,-0.72091913,9.862096,4.561015E-4,-2.7299486E-4,0.0034191022,-153.9831,-26.698544,-81.09455
488594186221225,0.01892076,-0.72091913,9.862096,4.561015E-4,-2.7299486E-4,0.0034191022,-153.16837,-27.021883,-82.12562
488594186735288,0.01892076,-0.72091913,9.862096,-7.657218E-5,-2.7299486E-4,0.0028864276,-153.16837,-27.021883,-82.12562
488594206221225,0.01892076,-0.72091913,9.862096,-7.657218E-5,-2.7299486E-4,0.0028864276,-154.62833,-26.390085,-83.099365
488594197947579,0.02131584,-0.71133876,9.869282,-7.657218E-5,-2.7299486E-4,0.0028864276,-154.62833,-26.390085,-83.099365
488594206817579,0.02131584,-0.71133876,9.869282,4.561015E-4,-2.7299486E-4,0.0034191022,-154.62833,-26.390085,-83.099365
488594218029871,0.01892076,-0.73528963,9.8573065,4.561015E-4,-2.7299486E-4,0.0034191022,-154.62833,-26.390085,-83.099365
488594226221225,0.01892076,-0.73528963,9.8573065,4.561015E-4,-2.7299486E-4,0.0034191022,-153.63626,-26.42061,-82.92384
488594226899871,0.01892076,-0.73528963,9.8573065,4.561015E-4,-2.7299486E-4,0.0034191022,-153.63626,-26.42061,-82.92384
488594238112163,0.01892076,-0.71133876,9.878861,4.561015E-4,-2.7299486E-4,0.0034191022,-153.63626,-26.42061,-82.92384
488594246221225,0.01892076,-0.71133876,9.878861,4.561015E-4,-2.7299486E-4,0.0034191022,-152.99649,-26.867167,-81.52086
488594246982163,0.01892076,-0.71133876,9.878861,-7.657218E-5,-2.7299486E-4,0.003951776,-152.99649,-26.867167,-81.52086
488594266221225,0.01892076,-0.71133876,9.878861,-7.657218E-5,-2.7299486E-4,0.003951776,-153.19885,-27.68088,-82.09591
488594258194506,0.01892076,-0.7257094,9.866886,-7.657218E-5,-2.7299486E-4,0.003951776,-153.19885,-27.68088,-82.09591
488594267064506,0.01892076,-0.7257094,9.866886,-6.092468E-4,-2.7299486E-4,0.003951776,-153.19885,-27.68088,-82.09591
488594286221225,0.01892076,-0.7257094,9.866886,-6.092468E-4,-2.7299486E-4,0.003951776,-154.33931,-27.268423,-81.988304
488594278276798,0.01892076,-0.7137339,9.847726,-6.092468E-4,-2.7299486E-4,0.003951776,-154.33931,-27.268423,-81.988304
488594287146798,0.01892076,-0.7137339,9.847726,-7.657218E-5,2.596788E-4,0.003951776,-154.33931,-27.268423,-81.988304
488594307229194,0.01892076,-0.7137339,9.847726,-7.657218E-5,-2.7299486E-4,0.0028864276,-154.33931,-27.268423,-81.988304
488594306221225,0.01892076,-0.7137339,9.847726,-7.657218E-5,-2.7299486E-4,0.0028864276,-152.99571,-26.87504,-82.28056
488594298359194,0.02131584,-0.71133876,9.874072,-7.657218E-5,-2.7299486E-4,0.0028864276,-152.99571,-26.87504,-82.28056
488594318441590,0.01892076,-0.73049945,9.876467,-7.657218E-5,-2.7299486E-4,0.0028864276,-152.99571,-26.87504,-82.28056
488594326221225,0.01892076,-0.73049945,9.876467,-7.657218E-5,-2.7299486E-4,0.0028864276,-152.90953,-28.562368,-81.288734
488594327311590,0.01892076,-0.73049945,9.876467,-7.657218E-5,-2.7299486E-4,0.0034191022,-152.90953,-28.562368,-81.288734
488594338524038,0.02131584,-0.716129,9.876467,-7.657218E-5,-2.7299486E-4,0.0034191022,-152.90953,-28.562368,-81.288734
488594346221225,0.02131584,-0.716129,9.876467,-7.657218E-5,-2.7299486E-4,0.0034191022,-152.98006,-26.452871,-79.715385
488594347394038,0.02131584,-0.716129,9.876467,4.561015E-4,-8.0566853E-4,0.003951776,-152.98006,-26.452871,-79.715385
488594366221225,0.02131584,-0.716129,9.876467,4.561015E-4,-8.0566853E-4,0.003951776,-154.80144,-26.532204,-82.488594
488594358606590,0.0117355175,-0.74007976,9.8597,4.561015E-4,-8.0566853E-4,0.003951776,-154.80144,-26.532204,-82.488594
488594367476590,0.0117355175,-0.74007976,9.8597,4.561015E-4,-2.7299486E-4,0.003951776,-154.80144,-26.532204,-82.488594
488594378689142,0.030896157,-0.7185241,9.852516,4.561015E-4,-2.7299486E-4,0.003951776,-154.80144,-26.532204,-82.488594
488594386221225,0.030896157,-0.7185241,9.852516,4.561015E-4,-2.7299486E-4,0.003951776,-153.82921,-26.942377,-80.77585
488594387559142,0.030896157,-0.7185241,9.852516,-7.657218E-5,2.596788E-4,0.0034191022,-153.82921,-26.942377,-80.77585
488594406221225,0.030896157,-0.7185241,9.852516,-7.657218E-5,2.596788E-4,0.0034191022,-153.46547,-26.254871,-81.25549
488594398771746,0.01892076,-0.72091913,9.886047,-7.657218E-5,2.596788E-4,0.0034191022,-153.46547,-26.254871,-81.25549
488594407641746,0.01892076,-0.72091913,9.886047,-7.657218E-5,-2.7299486E-4,0.0034191022,-153.46547,-26.254871,-81.25549
488594426221225,0.01892076,-0.72091913,9.886047,-7.657218E-5,-2.7299486E-4,0.0034191022,-153.12646,-26.091415,-81.4075
488594418854350,0.009340443,-0.72810435,9.850121,-7.657218E-5,-2.7299486E-4,0.0034191022,-153.12646,-26.091415,-81.4075
488594427724350,0.009340443,-0.72810435,9.850121,-7.657218E-5,-2.7299486E-4,0.0034191022,-153.12646,-26.091415,-81.4075
488594446221225,0.009340443,-0.72810435,9.850121,-7.657218E-5,-2.7299486E-4,0.0034191022,-153.96982,-26.44597,-82.17002
488594438937059,0.009340443,-0.7185241,9.8597,-7.657218E-5,-2.7299486E-4,0.0034191022,-153.96982,-26.44597,-82.17002
488594447807059,0.009340443,-0.7185241,9.8597,4.561015E-4,-2.7299486E-4,0.003951776,-153.96982,-26.44597,-82.17002
488594466221225,0.009340443,-0.7185241,9.8597,4.561015E-4,-2.7299486E-4,0.003951776,-153.53677,-27.855358,-83.00749
488594459019767,0.023710921,-0.72091913,9.862096,4.561015E-4,-2.7299486E-4,0.003951776,-153.53677,-27.855358,-83.00749
488594467889767,0.023710921,-0.72091913,9.862096,9.887756E-4,-2.7299486E-4,0.003951776,-153.53677,-27.855358,-83.00749
488594486221225,0.023710921,-0.72091913,9.862096,9.887756E-4,-2.7299486E-4,0.003951776,-153.90112,-28.536566,-81.92007
488594479102475,0.03568632,-0.7233142,9.852516,9.887756E-4,-2.7299486E-4,0.003951776,-153.90112,-28.536566,-81.92007
488594487972475,0.03568632,-0.7233142,9.852516,4.561015E-4,-2.7299486E-4,0.003951776,-153.90112,-28.536566,-81.92007
488594506221225,0.03568632,-0.7233142,9.852516,4.561015E-4,-2.7299486E-4,0.003951776,-154.0003,-27.104967,-82.14031
488594499185184,0.016525678,-0.72091913,9.888442,4.561015E-4,-2.7299486E-4,0.003951776,-154.0003,-27.104967,-82.14031
488594508055184,0.016525678,-0.72091913,9.888442,4.561015E-4,-8.0566853E-4,0.0034191022,-154.0003,-27.104967,-82.14031
488594526221225,0.016525678,-0.72091913,9.888442,4.561015E-4,-8.0566853E-4,0.0034191022,-153.68002,-27.332182,-81.81867
488594519267892,0.016525678,-0.74486995,9.871676,4.561015E-4,-8.0566853E-4,0.0034191022,-153.68002,-27.332182,-81.81867
488594528137892,0.016525678,-0.74486995,9.871676,4.561015E-4,-8.0566853E-4,0.0034191022,-153.68002,-27.332182,-81.81867
488594546221225,0.016525678,-0.74486995,9.871676,4.561015E-4,-8.0566853E-4,0.0034191022,-155.24103,-25.249887,-81.18936
488594539350652,0.016525678,-0.73049945,9.862096,4.561015E-4,-8.0566853E-4,0.0034191022,-155.24103,-25.249887,-81.18936
488594548220652,0.016525678,-0.73049945,9.862096,4.561015E-4,0.0013250262,0.0034191022,-155.24103,-25.249887,-81.18936
488594566221225,0.016525678,-0.73049945,9.862096,4.561015E-4,0.0013250262,0.0034191022,-153.80966,-26.559576,-82.00919
488594559433309,0.01892076,-0.7257094,9.862096,4.561015E-4,0.0013250262,0.0034191022,-153.80966,-26.559576,-82.00919
488594568303309,0.01892076,-0.7257094,9.862096,4.561015E-4,0.0013250262,0.0034191022,-153.80966,-26.559576,-82.00919
488594586221225,0.01892076,-0.7257094,9.862096,4.561015E-4,0.0013250262,0.0034191022,-154.74078,-25.211061,-82.24413
488594579515965,0.01892076,-0.7257094,9.840541,4.561015E-4,0.0013250262,0.0034191022,-154.74078,-25.211061,-82.24413
488594588385965,0.01892076,-0.7257094,9.840541,-7.657218E-5,0.0018577017,0.0028864276,-154.74078,-25.211061,-82.24413
488594606221225,0.01892076,-0.7257094,9.840541,-7.657218E-5,0.0018577017,0.0028864276,-153.93855,-25.794847,-82.959435
488594608468621,0.01892076,-0.7257094,9.840541,-6.092468E-4,0.0023903754,0.002353754,-153.93855,-25.794847,-82.959435
488594599598621,0.02131584,-0.70654863,9.866886,-6.092468E-4,0.0023903754,0.002353754,-153.93855,-25.794847,-82.959435
488594626221225,0.02131584,-0.70654863,9.866886,-6.092468E-4,0.0023903754,0.002353754,-152.03381,-27.56771,-82.37922
488594619681225,0.02131584,-0.716129,9.871676,-6.092468E-4,0.0023903754,0.002353754,-152.03381,-27.56771,-82.37922
488594628551225,0.02131584,-0.716129,9.871676,-6.092468E-4,0.002923049,0.0028864276,-152.03381,-27.56771,-82.37922
488594646221225,0.02131584,-0.716129,9.871676,-6.092468E-4,0.002923049,0.0028864276,-154.30882,-26.609426,-82.01801
488594648633829,0.02131584,-0.716129,9.871676,-7.657218E-5,7.923525E-4,0.0018210793,-154.30882,-26.609426,-82.01801
488594639763829,0.11711905,-0.6945732,9.8597,-7.657218E-5,7.923525E-4,0.0018210793,-154.30882,-26.609426,-82.01801
488594666221225,0.11711905,-0.6945732,9.8597,-7.657218E-5,7.923525E-4,0.0018210793,-155.31342,-26.839352,-81.87777
488594659846329,0.56260395,-0.505362,9.869282,-7.657218E-5,7.923525E-4,0.0018210793,-155.31342,-26.839352,-81.87777
488594668716329,0.56260395,-0.505362,9.869282,9.887756E-4,7.923525E-4,-0.043456215,-155.31342,-26.839352,-81.87777
488594686221225,0.56260395,-0.505362,9.869282,9.887756E-4,7.923525E-4,-0.043456215,-155.41179,-25.415625,-82.857704
488594679928881,-0.31639045,-0.838278,9.864491,9.887756E-4,7.923525E-4,-0.043456215,-155.41179,-25.415625,-82.857704
488594688798881,-0.31639045,-0.838278,9.864491,0.002054124,0.0050537456,-0.12921675,-155.41179,-25.415625,-82.857704
488594706221225,-0.31639045,-0.838278,9.864491,0.002054124,0.0050537456,-0.12921675,-155.82648,-27.13548,-80.20335
488594700011329,-0.01700544,-0.8167223,9.866886,0.002054124,0.0050537456,-0.12921675,-155.82648,-27.13548,-80.20335
488594708881329,-0.01700544,-0.8167223,9.866886,0.002054124,0.0055864193,-0.07914537,-155.82648,-27.13548,-80.20335
488594726221225,-0.01700544,-0.8167223,9.866886,0.002054124,0.0055864193,-0.07914537,-153.60686,-25.75059,-81.88997
488594720093777,0.47638103,-0.6586471,9.8597,0.002054124,0.0055864193,-0.07914537,-153.60686,-25.75059,-81.88997
488594728963777,0.47638103,-0.6586471,9.8597,0.0015214498,0.009315138,-0.07914537,-153.60686,-25.75059,-81.88997
488594746221225,0.47638103,-0.6586471,9.8597,0.0015214498,0.009315138,-0.07914537,-155.69545,-27.922258,-81.38029
488594740176225,-0.031375922,-0.73289454,9.866886,0.0015214498,0.009315138,-0.07914537,-155.69545,-27.922258,-81.38029
488594749046225,-0.031375922,-0.73289454,9.866886,0.0015214498,0.01357653,-0.16384056,-155.69545,-27.922258,-81.38029
488594766221225,-0.031375922,-0.73289454,9.866886,0.0015214498,0.01357653,-0.16384056,-157.50194,-27.571547,-80.82861
488594760258673,0.28477463,-0.6945732,9.883652,0.0015214498,0.01357653,-0.16384056,-157.50194,-27.571547,-80.82861
488594769128673,0.28477463,-0.6945732,9.883652,0.002586798,0.007184441,-0.17342867,-157.50194,-27.571547,-80.82861
488594786221225,0.28477463,-0.6945732,9.883652,0.002586798,0.007184441,-0.17342867,-158.30447,-26.984612,-79.80943
488594780341069,0.3997385,-0.6921782,9.869282,0.002586798,0.007184441,-0.17342867,-158.30447,-26.984612,-79.80943
488594789211069,0.3997385,-0.6921782,9.869282,0.0031194717,0.0055864193,-0.21337923,-158.30447,-26.984612,-79.80943
488594806221225,0.3997385,-0.6921782,9.869282,0.0031194717,0.0055864193,-0.21337923,-158.14201,-27.121838,-81.92773
488594809293517,0.3997385,-0.6921782,9.869282,0.002586798,0.01091316,-0.1952683,-158.14201,-27.121838,-81.92773
488594800423517,-0.4409346,-1.0873665,9.838145,0.002586798,0.01091316,-0.1952683,-158.14201,-27.121838,-81.92773
488594826221225,-0.4409346,-1.0873665,9.838145,0.002586798,0.01091316,-0.1952683,-160.94746,-26.86453,-80.78593
488594820505965,-0.0098202005,-1.5568019,9.807009,0.002586798,0.01091316,-0.1952683,-160.94746,-26.86453,-80.78593
488594829375965,-0.0098202005,-1.5568019,9.807009,0.002586798,0.0050537456,-0.091396876,-160.94746,-26.86453,-80.78593
488594846221225,-0.0098202005,-1.5568019,9.807009,0.002586798,0.0050537456,-0.091396876,-159.62996,-26.981022,-79.383064
488594849458361,-0.0098202005,-1.5568019,9.807009,0.002586798,0.002923049,-0.06476317,-159.62996,-26.981022,-79.383064
488594840588361,-0.37866256,-1.7531985,9.833356,0.002586798,0.002923049,-0.06476317,-159.62996,-26.981022,-79.383064
488594866221225,-0.37866256,-1.7531985,9.833356,0.002586798,0.002923049,-0.06476317,-161.29321,-27.15349,-80.02021
488594860670861,-0.20382169,-1.647815,9.790243,0.002586798,0.002923049,-0.06476317,-161.29321,-27.15349,-80.02021
488594869540861,-0.20382169,-1.647815,9.790243,0.002586798,7.923525E-4,0.008745842,-161.29321,-27.15349,-80.02021
488594886221225,-0.20382169,-1.647815,9.790243,0.002586798,7.923525E-4,0.008745842,-162.83047,-24.730913,-84.72666
488594880753309,0.002155196,-2.6154273,9.785454,0.002586798,7.923525E-4,0.008745842,-162.83047,-24.730913,-84.72666
488594889623309,0.002155196,-2.6154273,9.785454,-6.092468E-4,0.0023903754,0.04017361,-162.83047,-24.730913,-84.72666
488594906221225,0.002155196,-2.6154273,9.785454,-6.092468E-4,0.0023903754,0.04017361,-162.83047,-24.730913,-84.72666
488594900835809,0.6009252,-4.505145,9.6657,-6.092468E-4,0.0023903754,0.04017361,-162.83047,-24.730913,-84.72666
488594909705809,0.6009252,-4.505145,9.6657,-0.0011419205,7.923525E-4,-0.0029729856,-162.83047,-24.730913,-84.72666
488594926221225,0.6009252,-4.505145,9.6657,-0.0011419205,7.923525E-4,-0.0029729856,-161.60376,-16.065125,-83.57877
488594920918361,0.25124353,-5.4775476,9.450142,-0.0011419205,7.923525E-4,-0.0029729856,-161.60376,-16.065125,-83.57877
488594929788361,0.25124353,-5.4775476,9.450142,-0.004870639,0.002923049,-0.08393943,-161.60376,-16.065125,-83.57877
488594946221225,0.25124353,-5.4775476,9.450142,-0.004870639,0.002923049,-0.08393943,-158.94557,-15.565101,-73.66154
488594949870913,0.25124353,-5.4775476,9.450142,-0.003272617,-0.011991825,0.008745842,-158.94557,-15.565101,-73.66154
488594941000913,-0.39063793,-3.8345232,9.718392,-0.003272617,-0.011991825,0.008745842,-158.94557,-15.565101,-73.66154
488594966221225,-0.39063793,-3.8345232,9.718392,-0.003272617,-0.011991825,0.008745842,-155.82495,-15.804446,-63.547894
488594961083465,-0.15112992,-4.79495,9.581873,-0.003272617,-0.011991825,0.008745842,-155.82495,-15.804446,-63.547894
488594969953465,-0.15112992,-4.79495,9.581873,-0.005403313,-0.015187867,0.12007472,-155.82495,-15.804446,-63.547894
488594986221225,-0.15112992,-4.79495,9.581873,-0.005403313,-0.015187867,0.12007472,-160.1603,-27.102356,-60.843204
488594981166017,0.43326962,-4.5961585,9.562712,-0.005403313,-0.015187867,0.12007472,-160.1603,-27.102356,-60.843204
488594990036017,0.43326962,-4.5961585,9.562712,-0.018187491,-0.029570065,0.12167275,-160.1603,-27.102356,-60.843204
488595006221225,0.43326962,-4.5961585,9.562712,-0.018187491,-0.029570065,0.12167275,-171.99081,-39.6505,-68.58492
488595001248621,0.39494833,-4.3997617,9.739947,-0.018187491,-0.029570065,0.12167275,-171.99081,-39.6505,-68.58492
488595010118621,0.39494833,-4.3997617,9.739947,-0.021916209,-0.03756018,0.23087092,-171.99081,-39.6505,-68.58492
488595026221225,0.39494833,-4.3997617,9.739947,-0.021916209,-0.03756018,0.23087092,-187.38037,-36.01137,-75.93619
488595021331225,0.39734337,-4.9745812,9.622588,-0.021916209,-0.03756018,0.23087092,-187.38037,-36.01137,-75.93619
488595030201225,0.39734337,-4.9745812,9.622588,-0.015524119,-0.03809285,0.23673032,-187.38037,-36.01137,-75.93619
488595046221225,0.39734337,-4.9745812,9.622588,-0.015524119,-0.03809285,0.23673032,-204.19592,-44.826664,-68.30329
488595050283881,0.39734337,-4.9745812,9.622588,-7.657218E-5,-0.0066650845,0.055088487,-204.19592,-44.826664,-68.30329
488595041413881,0.356627,-4.6943564,9.471698,-7.657218E-5,-0.0066650845,0.055088487,-204.19592,-44.826664,-68.30329
488595066221225,0.356627,-4.6943564,9.471698,-7.657218E-5,-0.0066650845,0.055088487,-201.30403,-53.822163,-64.93577
488595061496486,-0.33315602,-2.4262161,9.943529,-7.657218E-5,-0.0066650845,0.055088487,-201.30403,-53.822163,-64.93577
488595070366486,-0.33315602,-2.4262161,9.943529,-0.010197379,0.032752797,-0.09885432,-201.30403,-53.822163,-64.93577
488595086221225,-0.33315602,-2.4262161,9.943529,-0.010197379,0.032752797,-0.09885432,-217.84155,-61.234985,-88.98088
488595081579090,-0.8025917,0.95563686,10.032146,-0.010197379,0.032752797,-0.09885432,-217.84155,-61.234985,-88.98088
488595090449090,-0.8025917,0.95563686,10.032146,-0.04854991,0.01890327,0.04123896,-217.84155,-61.234985,-88.98088
488595106221225,-0.8025917,0.95563686,10.032146,-0.04854991,0.01890327,0.04123896,-189.61714,-46.012825,-107.29636
488595101661746,-0.12957421,3.796202,10.183038,-0.04854991,0.01890327,0.04123896,-189.61714,-46.012825,-107.29636
488595110531746,-0.12957421,3.796202,10.183038,-0.10661139,0.0023903754,0.27135414,-189.61714,-46.012825,-107.29636
488595126221225,-0.12957421,3.796202,10.183038,-0.10661139,0.0023903754,0.27135414,-160.71405,-51.614754,-115.211426
488595121744350,0.6512219,4.7590237,10.154296,-0.10661139,0.0023903754,0.27135414,-160.71405,-51.614754,-115.211426
488595130614350,0.6512219,4.7590237,10.154296,-0.16041145,-0.010926476,0.28573635,-160.71405,-51.614754,-115.211426
488595146221225,0.6512219,4.7590237,10.154296,-0.16041145,-0.010926476,0.28573635,-142.25024,-32.28989,-125.11644
488595141826902,0.095563315,6.9361515,10.674028,-0.16041145,-0.010926476,0.28573635,-142.25024,-32.28989,-125.11644
488595150696902,0.095563315,6.9361515,10.674028,-0.04695189,-0.0050670616,0.06574197,-142.25024,-32.28989,-125.11644
488595166221225,0.095563315,6.9361515,10.674028,-0.04695189,-0.0050670616,0.06574197,-124.23656,-11.382423,-117.47048
488595161909506,-0.5247624,6.3062453,10.307581,-0.04695189,-0.0050670616,0.06574197,-124.23656,-11.382423,-117.47048
488595170779506,-0.5247624,6.3062453,10.307581,0.032416545,0.023697337,-0.06902456,-124.23656,-11.382423,-117.47048
488595186221225,-0.5247624,6.3062453,10.307581,0.032416545,0.023697337,-0.06902456,-112.78534,-3.275381,-104.059814
488595181992059,-0.031375922,7.089437,10.41057,0.032416545,0.023697337,-0.06902456,-112.78534,-3.275381,-104.059814
488595190862059,-0.031375922,7.089437,10.41057,0.13096125,0.0050537456,-0.01788786,-112.78534,-3.275381,-104.059814
488595206221225,-0.031375922,7.089437,10.41057,0.13096125,0.0050537456,-0.01788786,-111.20071,-4.629391,-98.033424
488595202074611,1.04641,3.834523,10.298001,0.13096125,0.0050537456,-0.01788786,-111.20071,-4.629391,-98.033424
488595210944611,1.04641,3.834523,10.298001,0.091543354,-0.0013383441,-0.01362647,-111.20071,-4.629391,-98.033424
488595226221225,1.04641,3.834523,10.298001,0.091543354,-0.0013383441,-0.01362647,-112.615326,-2.9085577,-95.712006
488595222157163,-0.48883623,2.1292262,10.171061,0.091543354,-0.0013383441,-0.01362647,-112.615326,-2.9085577,-95.712006
488595231027163,-0.48883623,2.1292262,10.171061,-0.0022072697,-0.0040017143,0.022595368,-112.615326,-2.9085577,-95.712006
488595246221225,-0.48883623,2.1292262,10.171061,-0.0022072697,-0.0040017143,0.022595368,-113.19892,-4.813047,-96.54928
488595242239663,0.2177124,2.0046818,10.056098,-0.0022072697,-0.0040017143,0.022595368,-113.19892,-4.813047,-96.54928
488595251109663,0.2177124,2.0046818,10.056098,-0.061334085,-0.0082631055,0.087581605,-113.19892,-4.813047,-96.54928
488595266221225,0.2177124,2.0046818,10.056098,-0.061334085,-0.0082631055,0.087581605,-112.69039,-4.6644654,-99.73717
488595262322163,0.46680066,2.639378,10.065679,-0.061334085,-0.0082631055,0.087581605,-112.69039,-4.6644654,-99.73717
488595271192163,0.46680066,2.639378,10.065679,-0.09276187,-0.009861128,-0.016289838,-112.69039,-4.6644654,-99.73717
488595286221225,0.46680066,2.639378,10.065679,-0.09276187,-0.009861128,-0.016289838,-117.72645,-6.261457,-104.03215
488595282404663,-1.3798059,2.577106,9.931553,-0.09276187,-0.009861128,-0.016289838,-117.72645,-6.261457,-104.03215
488595291274663,-1.3798059,2.577106,9.931553,-0.08530443,0.011978507,-0.14200091,-117.72645,-6.261457,-104.03215
488595306221225,-1.3798059,2.577106,9.931553,-0.08530443,0.011978507,-0.14200091,-122.37561,-10.349002,-111.70006
488595302487163,-0.7618753,4.138698,10.214172,-0.08530443,0.011978507,-0.14200091,-122.37561,-10.349002,-111.70006
488595311357163,-0.7618753,4.138698,10.214172,-0.034700386,-0.009861128,-0.025877971,-122.37561,-10.349002,-111.70006
488595326221225,-0.7618753,4.138698,10.214172,-0.034700386,-0.009861128,-0.025877971,-130.94781,-20.46634,-118.87324
488595322569663,0.42368925,3.262099,10.036937,-0.034700386,-0.009861128,-0.025877971,-130.94781,-20.46634,-118.87324
488595331439663,0.42368925,3.262099,10.036937,-0.010730052,-0.0024036914,-0.11536721,-130.94781,-20.46634,-118.87324
488595346221225,0.42368925,3.262099,10.036937,-0.010730052,-0.0024036914,-0.11536721,-137.59181,-31.626684,-118.65858
488595342652163,0.2871697,2.694465,10.199802,-0.010730052,-0.0024036914,-0.11536721,-137.59181,-31.626684,-118.65858
488595351522163,0.2871697,2.694465,10.199802,0.06757303,0.022099316,-0.35720122,-137.59181,-31.626684,-118.65858
488595366221225,0.2871697,2.694465,10.199802,0.06757303,0.022099316,-0.35720122,-149.94313,-40.287937,-101.20428
488595362734611,-1.4348929,2.9219973,9.953109,0.06757303,0.022099316,-0.35720122,-149.94313,-40.287937,-101.20428
488595371604611,-1.4348929,2.9219973,9.953109,0.12723254,0.034883495,-0.4706608,-149.94313,-40.287937,-101.20428
488595386221225,-1.4348929,2.9219973,9.953109,0.12723254,0.034883495,-0.4706608,-167.89781,-30.890097,-98.23702
488595382817111,-1.0492849,1.5112954,9.902812,0.12723254,0.034883495,-0.4706608,-167.89781,-30.890097,-98.23702
488595391687111,-1.0492849,1.5112954,9.902812,0.097935446,0.020501293,-0.3289695,-167.89781,-30.890097,-98.23702
488595406221225,-1.0492849,1.5112954,9.902812,0.097935446,0.020501293,-0.3289695,-195.39789,-35.29425,-119.168594
488595402899611,-1.2408915,0.39758325,10.048912,0.097935446,0.020501293,-0.3289695,-195.39789,-35.29425,-119.168594
488595411769611,-1.2408915,0.39758325,10.048912,0.06544234,0.0018577017,-0.1526544,-195.39789,-35.29425,-119.168594
488595426221225,-1.2408915,0.39758325,10.048912,0.06544234,0.0018577017,-0.1526544,-209.86281,-57.220425,-94.917
488595422982111,-0.6612819,0.56523883,9.874072,0.06544234,0.0018577017,-0.1526544,-209.86281,-57.220425,-94.917
488595431852111,-0.6612819,0.56523883,9.874072,0.032416545,-0.017318565,0.11155193,-209.86281,-57.220425,-94.917
488595446221225,-0.6612819,0.56523883,9.874072,0.032416545,-0.017318565,0.11155193,-201.58453,-49.505787,-76.23829
488595443064611,0.80690205,-1.1496384,9.737552,0.032416545,-0.017318565,0.11155193,-201.58453,-49.505787,-76.23829
488595451934611,0.80690205,-1.1496384,9.737552,0.016968997,-0.0412889,0.27561554,-201.58453,-49.505787,-76.23829
488595466221225,0.80690205,-1.1496384,9.737552,0.016968997,-0.0412889,0.27561554,-173.41385,-49.57784,-88.07307
488595463147163,0.4476401,-1.4011217,9.751923,0.016968997,-0.0412889,0.27561554,-173.41385,-49.57784,-88.07307
488595472017163,0.4476401,-1.4011217,9.751923,0.011642257,-0.021047283,0.21808673,-173.41385,-49.57784,-88.07307
488595486221225,0.4476401,-1.4011217,9.751923,0.011642257,-0.021047283,0.21808673,-155.65178,-51.48525,-63.26687
488595483229663,-1.1331127,-2.186708,9.917183,0.011642257,-0.021047283,0.21808673,-155.65178,-51.48525,-63.26687
488595492099663,-1.1331127,-2.186708,9.917183,0.022295738,-0.009328455,0.21382536,-155.65178,-51.48525,-63.26687
488595506221225,-1.1331127,-2.186708,9.917183,0.022295738,-0.009328455,0.21382536,-153.71103,-44.252457,-30.26545
488595503312215,-0.50560176,-3.9135606,9.64654,0.022295738,-0.009328455,0.21382536,-153.71103,-44.252457,-30.26545
488595512182215,-0.50560176,-3.9135606,9.64654,0.031883873,-0.03756018,0.4242316,-153.71103,-44.252457,-30.26545
488595526221225,-0.50560176,-3.9135606,9.64654,0.031883873,-0.03756018,0.4242316,-150.60089,-34.393578,-33.38711
488595523394767,2.1649122,-4.6608253,9.4597225,0.031883873,-0.03756018,0.4242316,-150.60089,-34.393578,-33.38711
488595532264767,2.1649122,-4.6608253,9.4597225,0.025491782,-0.03649483,0.49028322,-150.60089,-34.393578,-33.38711
488595546221225,2.1649122,-4.6608253,9.4597225,0.025491782,-0.03649483,0.49028322,-142.2101,-28.439182,-33.47484
488595543477319,2.009232,-6.0164413,9.478883,0.025491782,-0.03649483,0.49028322,-142.2101,-28.439182,-33.47484
488595552347319,2.009232,-6.0164413,9.478883,0.01217493,0.015707226,0.22607686,-142.2101,-28.439182,-33.47484
488595566221225,2.009232,-6.0164413,9.478883,0.01217493,0.015707226,0.22607686,-133.38736,-23.883152,-33.33645
488595563559923,0.13388458,-5.738612,9.615403,0.01217493,0.015707226,0.22607686,-133.38736,-23.883152,-33.33645
488595572429923,0.13388458,-5.738612,9.615403,0.0036521459,0.027958728,0.050827097,-133.38736,-23.883152,-33.33645
488595586221225,0.13388458,-5.738612,9.615403,0.0036521459,0.027958728,0.050827097,-133.38736,-23.883152,-33.33645
488595583642475,-0.34992155,-4.759024,9.598638,0.0036521459,0.027958728,0.050827097,-133.38736,-23.883152,-33.33645
488595592512475,-0.34992155,-4.759024,9.598638,0.00684819,0.014109204,0.113682635,-133.38736,-23.883152,-33.33645
488595606221225,-0.34992155,-4.759024,9.598638,0.00684819,0.014109204,0.113682635,-137.91281,-18.304321,-46.615917
488595603725027,0.33028114,-1.9591755,9.756712,0.00684819,0.014109204,0.113682635,-137.91281,-18.304321,-46.615917
488595612595027,0.33028114,-1.9591755,9.756712,0.002586798,-0.006132409,0.22874023,-137.91281,-18.304321,-46.615917
488595626221225,0.33028114,-1.9591755,9.756712,0.002586798,-0.006132409,0.22874023,-138.14189,-19.814823,-50.80784
488595623807631,0.8428283,-1.6933215,9.768688,0.002586798,-0.006132409,0.22874023,-138.14189,-19.814823,-50.80784
488595632677631,0.8428283,-1.6933215,9.768688,0.00684819,-0.015187867,0.21222731,-138.14189,-19.814823,-50.80784
488595646221225,0.8428283,-1.6933215,9.768688,0.00684819,-0.015187867,0.21222731,-141.21645,-21.824167,-50.479614
488595643890184,0.6751727,-2.5220191,9.727972,0.00684819,-0.015187867,0.21222731,-141.21645,-21.824167,-50.479614
488595652760184,0.6751727,-2.5220191,9.727972,0.01217493,-0.019981936,0.20583524,-141.21645,-21.824167,-50.479614
488595666221225,0.6751727,-2.5220191,9.727972,0.01217493,-0.019981936,0.20583524,-144.43927,-23.453156,-50.02021
488595663972788,0.5290728,-1.6645805,9.811799,0.01217493,-0.019981936,0.20583524,-144.43927,-23.453156,-50.02021
488595672842788,0.5290728,-1.6645805,9.811799,0.012707604,-0.027972046,0.260168,-144.43927,-23.453156,-50.02021
488595686221225,0.5290728,-1.6645805,9.811799,0.012707604,-0.027972046,0.260168,-146.48016,-24.559406,-48.494476
488595684055340,0.9003103,-1.7699641,9.828565,0.012707604,-0.027972046,0.260168,-146.48016,-24.559406,-48.494476
488595692925340,0.9003103,-1.7699641,9.828565,0.011642257,-0.026906699,0.27241948,-146.48016,-24.559406,-48.494476
488595706221225,0.9003103,-1.7699641,9.828565,0.011642257,-0.026906699,0.27241948,-147.84097,-25.359211,-49.247982
488595704137892,1.1326329,-1.2646023,9.890838,0.011642257,-0.026906699,0.27241948,-147.84097,-25.359211,-49.247982
488595713007892,1.1326329,-1.2646023,9.890838,0.010044234,-0.039690875,0.3416671,-147.84097,-25.359211,-49.247982
488595726221225,1.1326329,-1.2646023,9.890838,0.010044234,-0.039690875,0.3416671,-147.3723,-25.968357,-49.209457
488595724220444,1.9541452,0.10538347,9.862096,0.010044234,-0.039690875,0.3416671,-147.3723,-25.968357,-49.209457
488595733090444,1.9541452,0.10538347,9.862096,0.032949217,-0.11479791,0.39599988,-147.3723,-25.968357,-49.209457
488595746221225,1.9541452,0.10538347,9.862096,0.032949217,-0.11479791,0.39599988,-149.12186,-27.976568,-48.85178
488595753172996,1.9541452,0.10538347,9.862096,0.0292205,-0.09508898,0.2580373,-149.12186,-27.976568,-48.85178
488595744302996,3.0942035,-0.083827846,9.9483185,0.0292205,-0.09508898,0.2580373,-149.12186,-27.976568,-48.85178
488595766221225,3.0942035,-0.083827846,9.9483185,0.0292205,-0.09508898,0.2580373,-152.31418,-28.946558,-48.422085
488595773255496,3.0942035,-0.083827846,9.9483185,0.03721061,-0.12545142,0.1040945,-152.31418,-28.946558,-48.422085
488595764385496,5.386295,-0.47901604,9.766293,0.03721061,-0.12545142,0.1040945,-152.31418,-28.946558,-48.422085
488595786221225,5.386295,-0.47901604,9.766293,0.03721061,-0.12545142,0.1040945,-157.29158,-29.201935,-50.497368
488595784468048,5.472518,-1.6669757,9.692045,0.03721061,-0.12545142,0.1040945,-157.29158,-29.201935,-50.497368
488595793338048,5.472518,-1.6669757,9.692045,0.01750167,-0.0844355,-0.2330882,-157.29158,-29.201935,-50.497368
488595806221225,5.472518,-1.6669757,9.692045,0.01750167,-0.0844355,-0.2330882,-160.6886,-30.962017,-48.363613
488595804550548,6.5455136,-1.7292478,9.545946,0.01750167,-0.0844355,-0.2330882,-160.6886,-30.962017,-48.363613
488595813420548,6.5455136,-1.7292478,9.545946,0.011642257,-0.06632458,-0.6981126,-160.6886,-30.962017,-48.363613
488595826221225,6.5455136,-1.7292478,9.545946,0.011642257,-0.06632458,-0.6981126,-161.46594,-33.380405,-46.293182
488595824633100,4.6534004,-1.9687557,9.84533,0.011642257,-0.06632458,-0.6981126,-161.46594,-33.380405,-46.293182
488595833503100,4.6534004,-1.9687557,9.84533,0.013240278,-0.07804341,-1.259551,-161.46594,-33.380405,-46.293182
488595846221225,4.6534004,-1.9687557,9.84533,0.013240278,-0.07804341,-1.259551,-168.34166,-35.45212,-53.343544
488595844715600,2.8786461,-2.2585604,9.605823,0.013240278,-0.07804341,-1.259551,-168.34166,-35.45212,-53.343544
488595853585600,2.8786461,-2.2585604,9.605823,-0.009132031,0.012511181,-1.4577057,-168.34166,-35.45212,-53.343544
488595866221225,2.8786461,-2.2585604,9.605823,-0.009132031,0.012511181,-1.4577057,-179.25296,-41.98661,-47.052494
488595864798100,3.2426984,-2.1388063,9.816589,-0.009132031,0.012511181,-1.4577057,-179.25296,-41.98661,-47.052494
488595873668100,3.2426984,-2.1388063,9.816589,-0.017122142,0.04713499,-1.4928622,-179.25296,-41.98661,-47.052494
488595886221225,3.2426984,-2.1388063,9.816589,-0.017122142,0.04713499,-1.4928622,-168.48367,-41.60283,-37.709366
488595884880600,1.3098688,-2.3352032,9.622588,-0.017122142,0.04713499,-1.4928622,-168.48367,-41.60283,-37.709366
488595893750600,1.3098688,-2.3352032,9.622588,-0.017654816,0.030089423,-1.6766348,-168.48367,-41.60283,-37.709366
488595906221225,1.3098688,-2.3352032,9.622588,-0.017654816,0.030089423,-1.6766348,-168.68755,-46.118645,-40.850044
488595913833100,1.3098688,-2.3352032,9.622588,0.0015214498,-0.07484736,-1.66971,-168.68755,-46.118645,-40.850044
488595904963100,0.96018714,-2.900442,9.639354,0.0015214498,-0.07484736,-1.66971,-168.68755,-46.118645,-40.850044
488595926221225,0.96018714,-2.900442,9.639354,0.0015214498,-0.07484736,-1.66971,-186.24803,-52.60794,-17.07517
488595925045600,2.2655056,-3.111209,9.711206,0.0015214498,-0.07484736,-1.66971,-186.24803,-52.60794,-17.07517
488595933915600,2.2655056,-3.111209,9.711206,0.014305627,-0.11799397,-1.6329556,-186.24803,-52.60794,-17.07517
488595946221225,2.2655056,-3.111209,9.711206,0.014305627,-0.11799397,-1.6329556,-140.3948,-55.911217,8.116882
488595945128100,-0.29483473,-4.0907965,9.617798,0.014305627,-0.11799397,-1.6329556,-140.3948,-55.911217,8.116882
488595953998100,-0.29483473,-4.0907965,9.617798,0.072367094,-0.3608933,-1.6372169,-140.3948,-55.911217,8.116882
488595966221225,-0.29483473,-4.0907965,9.617798,0.072367094,-0.3608933,-1.6372169,-140.54341,-38.6805,-24.604542
488595965210652,-3.4132288,-4.670406,9.507625,0.072367094,-0.3608933,-1.6372169,-140.54341,-38.6805,-24.604542
488595974080652,-3.4132288,-4.670406,9.507625,-0.022448884,-0.07644538,-1.5743614,-140.54341,-38.6805,-24.604542
488595986221225,-3.4132288,-4.670406,9.507625,-0.022448884,-0.07644538,-1.5743614,-156.96156,-57.33435,-32.774937
488595985293152,-6.3687577,-5.3553987,9.737552,-0.022448884,-0.07644538,-1.5743614,-156.96156,-57.33435,-32.774937
488595994163152,-6.3687577,-5.3553987,9.737552,-0.18864319,0.5238782,-1.4417256,-156.96156,-57.33435,-32.774937
488596006221225,-6.3687577,-5.3553987,9.737552,-0.18864319,0.5238782,-1.4417256,-167.68529,-63.87317,-41.225163
488596005375652,-8.153091,-5.834415,9.969875,-0.18864319,0.5238782,-1.4417256,-167.68529,-63.87317,-41.225163
488596014245652,-8.153091,-5.834415,9.969875,-0.200362,0.6266843,-0.85152274,-167.68529,-63.87317,-41.225163
488596026221225,-8.153091,-5.834415,9.969875,-0.200362,0.6266843,-0.85152274,-180.34262,-58.548294,-51.481644
488596025458204,-5.753222,-3.8105721,10.12795,-0.200362,0.6266843,-0.85152274,-180.34262,-58.548294,-51.481644
488596034328204,-5.753222,-3.8105721,10.12795,-0.12152625,0.36673942,-0.14200091,-180.34262,-58.548294,-51.481644
488596046221225,-5.753222,-3.8105721,10.12795,-0.12152625,0.36673942,-0.14200091,-195.36792,-47.178673,-63.589756
488596045540704,-4.3281493,-1.7268527,9.763898,-0.12152625,0.36673942,-0.14200091,-195.36792,-47.178673,-63.589756
488596054410704,-4.3281493,-1.7268527,9.763898,-0.035233058,0.07589939,0.18133223,-195.36792,-47.178673,-63.589756
488596066221225,-4.3281493,-1.7268527,9.763898,-0.035233058,0.07589939,0.18133223,-210.03743,-45.42038,-56.852695
488596065623256,-5.386775,-1.0921564,9.701626,-0.035233058,0.07589939,0.18133223,-210.03743,-45.42038,-56.852695
488596074493256,-5.386775,-1.0921564,9.701626,-0.009132031,-0.013589844,0.15895991,-210.03743,-45.42038,-56.852695
488596086221225,-5.386775,-1.0921564,9.701626,-0.009132031,-0.013589844,0.15895991,-210.13884,-47.296585,-47.03935
488596085705809,-7.300444,-0.62511593,10.017776,-0.009132031,-0.013589844,0.15895991,-210.13884,-47.296585,-47.03935
488596094575809,-7.300444,-0.62511593,10.017776,0.0036521459,-0.03649483,0.058817204,-210.13884,-47.296585,-47.03935
488596106221225,-7.300444,-0.62511593,10.017776,0.0036521459,-0.03649483,0.058817204,-204.80379,-46.485497,-45.43778
488596105788361,-7.856102,-0.052691795,9.723181,0.0036521459,-0.03649483,0.058817204,-204.80379,-46.485497,-45.43778
488596114658361,-7.856102,-0.052691795,9.723181,-0.0011419205,-0.023710653,0.19784513,-204.80379,-46.485497,-45.43778
488596126221225,-7.856102,-0.052691795,9.723181,-0.0011419205,-0.023710653,0.19784513,-205.35056,-44.0777,-48.449306
488596125870913,-5.1017604,0.7352895,9.902812,-0.0011419205,-0.023710653,0.19784513,-205.35056,-44.0777,-48.449306
488596134740913,-5.1017604,0.7352895,9.902812,-0.03629841,0.08495485,0.40398997,-205.35056,-44.0777,-48.449306
488596146221225,-5.1017604,0.7352895,9.902812,-0.03629841,0.08495485,0.40398997,-208.26584,-43.05456,-60.87478
488596145953465,-1.4636338,1.9208542,10.029752,-0.03629841,0.08495485,0.40398997,-208.26584,-43.05456,-60.87478
488596154823465,-1.4636338,1.9208542,10.029752,-0.045353863,0.13609156,0.21276,-208.26584,-43.05456,-60.87478
488596166221225,-1.4636338,1.9208542,10.029752,-0.045353863,0.13609156,0.21276,-198.31087,-36.07731,-78.456795
488596174906017,-1.4636338,1.9208542,10.029752,-0.035765734,0.14035296,-0.32577348,-198.31087,-36.07731,-78.456795
488596166036017,-3.4587357,1.6909264,10.171061,-0.035765734,0.14035296,-0.32577348,-198.31087,-36.07731,-78.456795
488596186221225,-3.4587357,1.6909264,10.171061,-0.035765734,0.14035296,-0.32577348,-182.57233,-25.556765,-88.472565
488596186118621,-6.799872,0.38321277,10.056098,-0.035765734,0.14035296,-0.32577348,-182.57233,-25.556765,-88.472565
488596194988621,-6.799872,0.38321277,10.056098,-0.006468661,0.048200343,-0.3987498,-182.57233,-25.556765,-88.472565
488596206221225,-6.799872,0.38321277,10.056098,-0.006468661,0.048200343,-0.3987498,-160.88383,-25.573307,-83.42834
488596206201173,-3.8275778,0.28501448,10.082444,-0.006468661,0.048200343,-0.3987498,-160.88383,-25.573307,-83.42834
488596215071173,-3.8275778,0.28501448,10.082444,0.0057828417,-0.009328455,0.07000336,-160.88383,-25.573307,-83.42834
488596226221225,-3.8275778,0.28501448,10.082444,0.0057828417,-0.009328455,0.07000336,-157.89006,-35.447533,-64.664314
488596226283725,-2.277961,-0.5197324,9.866886,0.0057828417,-0.009328455,0.07000336,-157.89006,-35.447533,-64.664314
488596235153725,-2.277961,-0.5197324,9.866886,-6.092468E-4,-0.025308676,0.2351323,-157.89006,-35.447533,-64.664314
488596246221225,-2.277961,-0.5197324,9.866886,-6.092468E-4,-0.025308676,0.2351323,-139.93501,-23.510605,-73.32789
488596246366277,1.8128357,0.13172936,9.854912,-6.092468E-4,-0.025308676,0.2351323,-139.93501,-23.510605,-73.32789
488596255236277,1.8128357,0.13172936,9.854912,0.0041848198,-0.03542948,0.4061207,-139.93501,-23.510605,-73.32789
488596266221225,1.8128357,0.13172936,9.854912,0.0041848198,-0.03542948,0.4061207,-139.93501,-23.510605,-73.32789
488596275318829,1.8128357,0.13172936,9.854912,0.0041848198,-0.05886714,0.38001963,-139.93501,-23.510605,-73.32789
488596266448829,0.57697445,0.6849928,9.888442,0.0041848198,-0.05886714,0.38001963,-139.93501,-23.510605,-73.32789
488596286221225,0.57697445,0.6849928,9.888442,0.0041848198,-0.05886714,0.38001963,-144.68181,-31.875942,-37.323845
488596286531381,2.1649122,1.0969467,10.11358,0.0041848198,-0.05886714,0.38001963,-144.68181,-31.875942,-37.323845
488596295401381,2.1649122,1.0969467,10.11358,-7.657218E-5,-0.04714831,0.7118756,-144.68181,-31.875942,-37.323845
488596306221225,2.1649122,1.0969467,10.11358,-7.657218E-5,-0.04714831,0.7118756,-148.78563,-34.44605,-30.607967
488596306613934,2.8307445,-0.10298849,9.900417,-7.657218E-5,-0.04714831,0.7118756,-148.78563,-34.44605,-30.607967
488596315483934,2.8307445,-0.10298849,9.900417,-0.0059359875,-0.07324933,1.1097832,-148.78563,-34.44605,-30.607967
488596326221225,2.8307445,-0.10298849,9.900417,-0.0059359875,-0.07324933,1.1097832,-162.13094,-32.871956,-29.0015
488596326696434,5.000687,-0.42632425,9.936343,-0.0059359875,-0.07324933,1.1097832,-162.13094,-32.871956,-29.0015
488596335566434,5.000687,-0.42632425,9.936343,-0.010197379,-0.10361176,1.4229954,-162.13094,-32.871956,-29.0015
488596346221225,5.000687,-0.42632425,9.936343,-0.010197379,-0.10361176,1.4229954,-177.50183,-36.083076,-38.92479
488596346778986,6.341932,0.05748188,9.864491,-0.010197379,-0.10361176,1.4229954,-177.50183,-36.083076,-38.92479
488596355648986,6.341932,0.05748188,9.864491,-6.092468E-4,-0.0988177,1.3739895,-177.50183,-36.083076,-38.92479
488596366221225,6.341932,0.05748188,9.864491,-6.092468E-4,-0.0988177,1.3739895,-192.74664,-43.748436,-49.247948
488596366861538,5.5180244,0.67780757,9.898023,-6.092468E-4,-0.0988177,1.3739895,-192.74664,-43.748436,-49.247948
488596375731538,5.5180244,0.67780757,9.898023,9.887756E-4,-0.075380035,1.07729,-192.74664,-43.748436,-49.247948
488596386221225,5.5180244,0.67780757,9.898023,9.887756E-4,-0.075380035,1.07729,-195.4407,-45.433563,-71.72875
488596386944038,4.9527855,0.0790376,9.862096,9.887756E-4,-0.075380035,1.07729,-195.4407,-45.433563,-71.72875
488596395814038,4.9527855,0.0790376,9.862096,9.887756E-4,-0.02743937,0.6463567,-195.4407,-45.433563,-71.72875
488596406221225,4.9527855,0.0790376,9.862096,9.887756E-4,-0.02743937,0.6463567,-186.0057,-45.730858,-77.12958
488596407026538,3.863024,-0.42871937,9.847726,9.887756E-4,-0.02743937,0.6463567,-186.0057,-45.730858,-77.12958
488596415896538,3.863024,-0.42871937,9.847726,-0.0016745941,-0.014655195,0.37416023,-186.0057,-45.730858,-77.12958
488596426221225,3.863024,-0.42871937,9.847726,-0.0016745941,-0.014655195,0.37416023,-182.52812,-45.794624,-78.72138
488596427109090,1.9349847,-1.5496168,9.797429,-0.0016745941,-0.014655195,0.37416023,-182.52812,-45.794624,-78.72138
488596435979090,1.9349847,-1.5496168,9.797429,-6.092468E-4,-0.0066650845,0.15363318,-182.52812,-45.794624,-78.72138
488596446221225,1.9349847,-1.5496168,9.797429,-6.092468E-4,-0.0066650845,0.15363318,-181.2924,-47.792522,-80.72998
488596456061590,1.9349847,-1.5496168,9.797429,-7.657218E-5,-0.004534388,0.11155193,-181.2924,-47.792522,-80.72998
488596447191590,0.54104817,-0.88378453,9.8573065,-7.657218E-5,-0.004534388,0.11155193,-181.2924,-47.792522,-80.72998
488596466221225,0.54104817,-0.88378453,9.8573065,-7.657218E-5,-0.004534388,0.11155193,-182.49763,-45.135628,-78.75109
488596476144142,0.54104817,-0.88378453,9.8573065,-7.657218E-5,-0.018916585,0.25004718,-182.49763,-45.135628,-78.75109
488596467274142,0.4428499,-0.5604488,9.854912,-7.657218E-5,-0.018916585,0.25004718,-182.49763,-45.135628,-78.75109
488596486221225,0.4428499,-0.5604488,9.854912,-7.657218E-5,-0.018916585,0.25004718,-183.11272,-44.165024,-80.48173
488596487356642,0.07161252,-0.3496817,9.888442,-7.657218E-5,-0.018916585,0.25004718,-183.11272,-44.165024,-80.48173
488596496226642,0.07161252,-0.3496817,9.888442,4.561015E-4,-0.029037394,0.33634037,-183.11272,-44.165024,-80.48173
488596506221225,0.07161252,-0.3496817,9.888442,4.561015E-4,-0.029037394,0.33634037,-184.45036,-44.42503,-80.04348
488596507439194,0.27758938,-0.23711297,9.881256,4.561015E-4,-0.029037394,0.33634037,-184.45036,-44.42503,-80.04348
488596516309194,0.27758938,-0.23711297,9.881256,0.0031194717,-0.029570065,0.35125524,-184.45036,-44.42503,-80.04348
488596526221225,0.27758938,-0.23711297,9.881256,0.0031194717,-0.029570065,0.35125524,-181.35309,-45.395813,-76.889404
488596527521694,0.7158891,0.047901563,9.893231,0.0031194717,-0.029570065,0.35125524,-181.35309,-45.395813,-76.889404
488596536391694,0.7158891,0.047901563,9.893231,0.005250168,-0.034364134,0.36403942,-181.35309,-45.395813,-76.889404
488596546221225,0.7158891,0.047901563,9.893231,0.005250168,-0.034364134,0.36403942,-183.93118,-43.80389,-75.80408
488596547604246,0.8092972,0.20118669,9.924368,0.005250168,-0.034364134,0.36403942,-183.93118,-43.80389,-75.80408
488596556474246,0.8092972,0.20118669,9.924368,0.0047174934,-0.03756018,0.37842163,-183.93118,-43.80389,-75.80408
488596566221225,0.8092972,0.20118669,9.924368,0.0047174934,-0.03756018,0.37842163,-185.0956,-43.923363,-76.12854
488596567686746,1.9469601,0.32573083,9.912393,0.0047174934,-0.03756018,0.37842163,-185.0956,-43.923363,-76.12854
488596576556746,1.9469601,0.32573083,9.912393,0.0089788865,-0.050877027,0.37202954,-185.0956,-43.923363,-76.12854
488596586221225,1.9469601,0.32573083,9.912393,0.0089788865,-0.050877027,0.37202954,-185.88828,-43.049206,-72.84212
488596587769298,3.7528505,0.43111438,9.9483185,0.0089788865,-0.050877027,0.37202954,-185.88828,-43.049206,-72.84212
488596596639298,3.7528505,0.43111438,9.9483185,0.022828411,-0.09402362,0.21595603,-185.88828,-43.049206,-72.84212
488596606221225,3.7528505,0.43111438,9.9483185,0.022828411,-0.09402362,0.21595603,-188.65007,-41.685535,-66.73381
488596607851850,4.93123,0.87659925,9.874072,0.022828411,-0.09402362,0.21595603,-188.65007,-41.685535,-66.73381
488596616721850,4.93123,0.87659925,9.874072,0.029753175,-0.10520979,-0.10364837,-188.65007,-41.685535,-66.73381
488596626221225,4.93123,0.87659925,9.874072,0.029753175,-0.10520979,-0.10364837,-188.15305,-37.509357,-48.67327
488596627934350,5.5180244,1.4609988,9.9579,0.029753175,-0.10520979,-0.10364837,-188.15305,-37.509357,-48.67327
488596636804350,5.5180244,1.4609988,9.9579,0.016968997,-0.030635417,-0.2980744,-188.15305,-37.509357,-48.67327
488596646221225,5.5180244,1.4609988,9.9579,0.016968997,-0.030635417,-0.2980744,-178.13339,-28.284267,-40.21058
488596656886902,5.5180244,1.4609988,9.9579,0.00951156,0.049265694,-0.5303203,-178.13339,-28.284267,-40.21058
488596648016902,6.8760347,0.9197107,9.658514,0.00951156,0.049265694,-0.5303203,-178.13339,-28.284267,-40.21058
488596666221225,6.8760347,0.9197107,9.658514,0.00951156,0.049265694,-0.5303203,-169.27615,-15.674471,-35.882282
488596676969454,6.8760347,0.9197107,9.658514,-0.017654816,0.15899655,-0.96817833,-169.27615,-15.674471,-35.882282
488596668099454,6.852084,-1.2214907,9.747132,-0.017654816,0.15899655,-0.96817833,-169.27615,-15.674471,-35.882282
488596686221225,6.852084,-1.2214907,9.747132,-0.017654816,0.15899655,-0.96817833,-164.03026,-2.9602106,-49.881264
488596688182006,3.0942035,-3.5806446,10.012987,-0.017654816,0.15899655,-0.96817833,-164.03026,-2.9602106,-49.881264
488596697052006,3.0942035,-3.5806446,10.012987,0.027622478,-0.038625527,-1.3767394,-164.03026,-2.9602106,-49.881264
488596706221225,3.0942035,-3.5806446,10.012987,0.027622478,-0.038625527,-1.3767394,-152.62787,-14.108845,-44.856796
488596708264559,-0.04814148,-5.7505865,9.751923,0.027622478,-0.038625527,-1.3767394,-152.62787,-14.108845,-44.856796
488596717134559,-0.04814148,-5.7505865,9.751923,0.1256345,-0.4146934,-1.3362561,-152.62787,-14.108845,-44.856796
488596726221225,-0.04814148,-5.7505865,9.751923,0.1256345,-0.4146934,-1.3362561,-160.10815,-18.840107,-61.98312
488596728347111,0.3350713,-5.824835,9.225005,0.1256345,-0.4146934,-1.3362561,-160.10815,-18.840107,-61.98312
488596737217111,0.3350713,-5.824835,9.225005,0.11071963,-0.38220027,-0.79612464,-160.10815,-18.840107,-61.98312
488596746221225,0.3350713,-5.824835,9.225005,0.11071963,-0.38220027,-0.79612464,-154.42528,-38.325603,-34.051044
488596748429663,2.811584,-4.730283,9.608217,0.11071963,-0.38220027,-0.79612464,-154.42528,-38.325603,-34.051044
488596757299663,2.811584,-4.730283,9.608217,0.018034345,-0.09242561,-0.5878491,-154.42528,-38.325603,-34.051044
488596766221225,2.811584,-4.730283,9.608217,0.018034345,-0.09242561,-0.5878491,-157.91061,-35.239674,-44.60811
488596777382267,2.811584,-4.730283,9.608217,-0.004870639,-0.064726554,-1.0289032,-157.91061,-35.239674,-44.60811
488596768512267,0.009340443,-5.489523,9.749528,-0.004870639,-0.064726554,-1.0289032,-157.91061,-35.239674,-44.60811
488596786221225,0.009340443,-5.489523,9.749528,-0.004870639,-0.064726554,-1.0289032,-158.45166,-42.688065,-23.754402
488596788594819,-2.9677439,-6.562519,9.37829,-0.004870639,-0.064726554,-1.0289032,-158.45166,-42.688065,-23.754402
488596797464819,-2.9677439,-6.562519,9.37829,-0.030438993,0.0039883982,-1.0065309,-158.45166,-42.688065,-23.754402
488596806221225,-2.9677439,-6.562519,9.37829,-0.030438993,0.0039883982,-1.0065309,-153.26492,-35.414978,-55.4418
488596808677371,-5.0490685,-6.682274,9.304043,-0.030438993,0.0039883982,-1.0065309,-153.26492,-35.414978,-55.4418
488596817547371,-5.0490685,-6.682274,9.304043,-0.10448069,0.30654728,-0.42964488,-153.26492,-35.414978,-55.4418
488596826221225,-5.0490685,-6.682274,9.304043,-0.10448069,0.30654728,-0.42964488,-178.96606,-35.79519,-47.63564
488596828759923,-3.324611,-4.2943788,9.601032,-0.10448069,0.30654728,-0.42964488,-178.96606,-35.79519,-47.63564
488596837629923,-3.324611,-4.2943788,9.601032,-0.16840155,0.5435872,0.006615146,-178.96606,-35.79519,-47.63564
488596846221225,-3.324611,-4.2943788,9.601032,-0.16840155,0.5435872,0.006615146,-162.608,-72.29819,-41.787727
488596848842475,-5.0778093,-2.7567372,9.835751,-0.16840155,0.5435872,0.006615146,-162.608,-72.29819,-41.787727
488596857712475,-5.0778093,-2.7567372,9.835751,-0.10661139,0.3124067,-0.16437322,-162.608,-72.29819,-41.787727
488596866221225,-5.0778093,-2.7567372,9.835751,-0.10661139,0.3124067,-0.16437322,-179.52081,-85.35391,-99.78482
488596868924975,-8.629712,-1.6142839,9.83096,-0.10661139,0.3124067,-0.16437322,-179.52081,-85.35391,-99.78482
488596877794975,-8.629712,-1.6142839,9.83096,-0.07784698,0.18136889,-0.20432378,-179.52081,-85.35391,-99.78482
488596886221225,-8.629712,-1.6142839,9.83096,-0.07784698,0.18136889,-0.20432378,-208.62189,-56.133644,-115.76581
488596889007527,-7.554322,-0.48620126,10.175852,-0.07784698,0.18136889,-0.20432378,-208.62189,-56.133644,-115.76581
488596897877527,-7.554322,-0.48620126,10.175852,-0.07891234,0.14994109,0.25857,-208.62189,-56.133644,-115.76581
488596906221225,-7.554322,-0.48620126,10.175852,-0.07891234,0.14994109,0.25857,-211.4044,-33.609047,-106.68128
488596909090079,-3.8587136,0.5221274,10.060888,-0.07891234,0.14994109,0.25857,-211.4044,-33.609047,-106.68128
488596917960079,-3.8587136,0.5221274,10.060888,-0.052278627,-0.0034690388,0.5813705,-211.4044,-33.609047,-106.68128
488596926221225,-3.8587136,0.5221274,10.060888,-0.052278627,-0.0034690388,0.5813705,-199.78896,-17.641205,-71.13092
488596929172631,-3.9952333,0.95803195,10.060888,-0.052278627,-0.0034690388,0.5813705,-199.78896,-17.641205,-71.13092
488596938042631,-3.9952333,0.95803195,10.060888,-0.062399436,-0.021047283,0.3400691,-199.78896,-17.641205,-71.13092
488596946221225,-3.9952333,0.95803195,10.060888,-0.062399436,-0.021047283,0.3400691,-199.78896,-17.641205,-71.13092
488596949255184,-3.9736776,2.2370048,10.115975,-0.062399436,-0.021047283,0.3400691,-199.78896,-17.641205,-71.13092
488596958125184,-3.9736776,2.2370048,10.115975,-0.09222918,0.006119093,0.103561826,-199.78896,-17.641205,-71.13092
488596966221225,-3.9736776,2.2370048,10.115975,-0.09222918,0.006119093,0.103561826,-221.39005,-37.525867,-84.83258
488596969337684,-4.2682724,1.918459,10.024961,-0.09222918,0.006119093,0.103561826,-221.39005,-37.525867,-84.83258
488596978207684,-4.2682724,1.918459,10.024961,-0.084771745,0.0162399,-0.024812624,-221.39005,-37.525867,-84.83258
488596986221225,-4.2682724,1.918459,10.024961,-0.084771745,0.0162399,-0.024812624,-202.674,-20.25499,-105.278465
488596989420236,-5.0083523,-0.74726504,9.828565,-0.084771745,0.0162399,-0.024812624,-202.674,-20.25499,-105.278465
488596998290236,-5.0083523,-0.74726504,9.828565,-0.03683108,0.010380486,-0.1771574,-202.674,-20.25499,-105.278465
488597006221225,-5.0083523,-0.74726504,9.828565,-0.03683108,0.010380486,-0.1771574,-176.08052,-6.540984,-76.58745
488597009502788,-5.1831927,-1.4945298,9.766293,-0.03683108,0.010380486,-0.1771574,-176.08052,-6.540984,-76.58745
488597018372788,-5.1831927,-1.4945298,9.766293,0.011642257,0.0013250262,-0.004038335,-176.08052,-6.540984,-76.58745
488597026221225,-5.1831927,-1.4945298,9.766293,0.011642257,0.0013250262,-0.004038335,-195.5207,-32.65565,-66.543106
488597029585288,-4.404792,-0.208372,9.639354,0.011642257,0.0013250262,-0.004038335,-195.5207,-32.65565,-66.543106
488597038455288,-4.404792,-0.208372,9.639354,0.016968997,-0.019981936,0.53928924,-195.5207,-32.65565,-66.543106
488597046221225,-4.404792,-0.208372,9.639354,0.016968997,-0.019981936,0.53928924,-206.59442,-40.794975,-111.71543
488597049667840,-2.9437933,1.3484302,9.9483185,0.016968997,-0.019981936,0.53928924,-206.59442,-40.794975,-111.71543
488597058537840,-2.9437933,1.3484302,9.9483185,0.065975,-0.03756018,0.8620897,-206.59442,-40.794975,-111.71543
488597066221225,-2.9437933,1.3484302,9.9483185,0.065975,-0.03756018,0.8620897,-153.71565,-14.809854,-114.016426
488597069750392,-2.2061083,1.3412448,9.921973,0.065975,-0.03756018,0.8620897,-153.71565,-14.809854,-114.016426
488597078620392,-2.2061083,1.3412448,9.921973,0.11285033,-0.05194238,1.0218918,-153.71565,-14.809854,-114.016426
488597086221225,-2.2061083,1.3412448,9.921973,0.11285033,-0.05194238,1.0218918,-173.6448,-22.295813,-87.664055
488597089832892,3.5229225,3.470471,10.1782465,0.11285033,-0.05194238,1.0218918,-173.6448,-22.295813,-87.664055
488597098702892,3.5229225,3.470471,10.1782465,0.13096125,-0.042354245,0.90310556,-173.6448,-22.295813,-87.664055
488597106221225,3.5229225,3.470471,10.1782465,0.13096125,-0.042354245,0.90310556,-180.42613,-18.895815,-99.52513
488597109915444,1.3338196,3.0249858,10.180642,0.13096125,-0.042354245,0.90310556,-180.42613,-18.895815,-99.52513
488597118785444,1.3338196,3.0249858,10.180642,0.06437699,-0.02211263,0.49880597,-180.42613,-18.895815,-99.52513
488597126221225,1.3338196,3.0249858,10.180642,0.06437699,-0.02211263,0.49880597,-177.85898,-28.199644,-109.98417
488597129997944,3.079833,3.178271,10.192616,0.06437699,-0.02211263,0.49880597,-177.85898,-28.199644,-109.98417
488597138867944,3.079833,3.178271,10.192616,-0.050147932,-0.017318565,0.39866325,-177.85898,-28.199644,-109.98417
488597146221225,3.079833,3.178271,10.192616,-0.050147932,-0.017318565,0.39866325,-174.52634,-45.730976,-111.2298
488597150080496,3.7648258,1.4274677,9.900417,-0.050147932,-0.017318565,0.39866325,-174.52634,-45.730976,-111.2298
488597158950496,3.7648258,1.4274677,9.900417,-0.12578763,-0.0034690388,0.08012417,-174.52634,-45.730976,-111.2298
488597166221225,3.7648258,1.4274677,9.900417,-0.12578763,-0.0034690388,0.08012417,-167.48172,-61.675903,-109.12154
488597170163048,1.0320396,-1.0370697,9.883652,-0.12578763,-0.0034690388,0.08012417,-167.48172,-61.675903,-109.12154
488597179033048,1.0320396,-1.0370697,9.883652,-0.118862875,0.017837923,-0.21977134,-167.48172,-61.675903,-109.12154
488597186221225,1.0320396,-1.0370697,9.883652,-0.118862875,0.017837923,-0.21977134,-161.61371,-63.713684,-108.8969
488597190245600,0.47877613,-1.4681841,9.749528,-0.118862875,0.017837923,-0.21977134,-161.61371,-63.713684,-108.8969
488597199115600,0.47877613,-1.4681841,9.749528,-0.07518361,0.015174553,0.048696395,-161.61371,-63.713684,-108.8969
488597206221225,0.47877613,-1.4681841,9.749528,-0.07518361,0.015174553,0.048696395,-165.03706,-58.932777,-108.58552
488597210328152,2.0188124,-0.9101305,9.833356,-0.07518361,0.015174553,0.048696395,-165.03706,-58.932777,-108.58552
488597219198152,2.0188124,-0.9101305,9.833356,-0.046419214,-0.03542948,0.4711069,-165.03706,-58.932777,-108.58552
488597226221225,2.0188124,-0.9101305,9.833356,-0.046419214,-0.03542948,0.4711069,-170.29398,-47.83352,-126.69634
488597230410704,3.4893916,-1.3436399,9.715997,-0.046419214,-0.03542948,0.4711069,-170.29398,-47.83352,-126.69634
488597239280704,3.4893916,-1.3436399,9.715997,-0.02351423,-0.054073073,0.62931114,-170.29398,-47.83352,-126.69634
488597246221225,3.4893916,-1.3436399,9.715997,-0.02351423,-0.054073073,0.62931114,-147.181,-28.332186,-138.93825
488597250493256,3.4534655,-2.2394,9.694441,-0.02351423,-0.054073073,0.62931114,-147.181,-28.332186,-138.93825
488597259363256,3.4534655,-2.2394,9.694441,-0.0011419205,-0.05726912,0.56059617,-147.181,-28.332186,-138.93825
488597266221225,3.4534655,-2.2394,9.694441,-0.0011419205,-0.05726912,0.56059617,-133.10329,-17.234877,-128.19127
488597270575809,2.6391385,-2.730391,9.706416,-0.0011419205,-0.05726912,0.56059617,-133.10329,-17.234877,-128.19127
488597279445809,2.6391385,-2.730391,9.706416,0.002054124,-0.045550294,0.572315,-133.10329,-17.234877,-128.19127
488597286221225,2.6391385,-2.730391,9.706416,0.002054124,-0.045550294,0.572315,-130.25557,-16.17844,-117.07932
488597290658361,3.0463016,-1.3316643,9.811799,0.002054124,-0.045550294,0.572315,-130.25557,-16.17844,-117.07932
488597299528361,3.0463016,-1.3316643,9.811799,4.561015E-4,-0.046082966,0.6234517,-130.25557,-16.17844,-117.07932
488597306221225,3.0463016,-1.3316643,9.811799,4.561015E-4,-0.046082966,0.6234517,-128.5726,-15.431535,-111.907715
488597310740913,3.3696377,-0.8742042,9.816589,4.561015E-4,-0.046082966,0.6234517,-128.5726,-15.431535,-111.907715
488597319610913,3.3696377,-0.8742042,9.816589,-0.003272617,-0.029570065,0.45672473,-128.5726,-15.431535,-111.907715
488597326221225,3.3696377,-0.8742042,9.816589,-0.003272617,-0.029570065,0.45672473,-126.75012,-15.363226,-110.19809
488597330823517,1.0607805,-0.838278,9.833356,-0.003272617,-0.029570065,0.45672473,-126.75012,-15.363226,-110.19809
488597339693517,1.0607805,-0.838278,9.833356,-0.0016745941,-0.009328455,0.18932234,-126.75012,-15.363226,-110.19809
488597346221225,1.0607805,-0.838278,9.833356,-0.0016745941,-0.009328455,0.18932234,-128.08232,-15.485139,-109.15802
488597350906069,0.12909445,-0.84785837,9.8573065,-0.0016745941,-0.009328455,0.18932234,-128.08232,-15.485139,-109.15802
488597359776069,0.12909445,-0.84785837,9.8573065,-7.657218E-5,0.004521071,0.04123896,-128.08232,-15.485139,-109.15802
488597366221225,0.12909445,-0.84785837,9.8573065,-7.657218E-5,0.004521071,0.04123896,-128.55617,-15.017241,-110.10225
488597370988621,0.0069453605,-0.8191174,9.854912,-7.657218E-5,0.004521071,0.04123896,-128.55617,-15.017241,-110.10225
488597379858621,0.0069453605,-0.8191174,9.854912,0.0015214498,0.0018577017,0.010876538,-128.55617,-15.017241,-110.10225
488597386221225,0.0069453605,-0.8191174,9.854912,0.0015214498,0.0018577017,0.010876538,-128.0831,-15.477265,-108.398315
488597391071173,-0.012215279,-0.80953705,9.84533,0.0015214498,0.0018577017,0.010876538,-128.0831,-15.477265,-108.398315
488597399941173,-0.012215279,-0.80953705,9.84533,0.002054124,-0.0018710177,0.0028864276,-128.0831,-15.477265,-108.398315
488597406221225,-0.012215279,-0.80953705,9.84533,0.002054124,-0.0018710177,0.0028864276,-127.29306,-16.32465,-109.10173
488597411153725,0.042871565,-0.8143273,9.8597,0.002054124,-0.0018710177,0.0028864276,-127.29306,-16.32465,-109.10173
488597420023725,0.042871565,-0.8143273,9.8597,-7.657218E-5,-0.0018710177,0.0028864276,-127.29306,-16.32465,-109.10173
488597426221225,0.042871565,-0.8143273,9.8597,-7.657218E-5,-0.0018710177,0.0028864276,-129.25844,-15.872929,-109.926414
488597431236277,0.04766172,-0.8191174,9.850121,-7.657218E-5,-0.0018710177,0.0028864276,-129.25844,-15.872929,-109.926414
488597440106277,0.04766172,-0.8191174,9.850121,-0.0027399424,-0.0034690388,0.0028864276,-129.25844,-15.872929,-109.926414
488597446221225,0.04766172,-0.8191174,9.850121,-0.0027399424,-0.0034690388,0.0028864276,-128.09483,-15.745588,-108.842255
488597451318829,0.0117355175,-0.804747,9.840541,-0.0027399424,-0.0034690388,0.0028864276,-128.09483,-15.745588,-108.842255
488597460188829,0.0117355175,-0.804747,9.840541,-0.0038052907,-0.0082631055,0.002353754,-128.09483,-15.745588,-108.842255
488597466221225,0.0117355175,-0.804747,9.840541,-0.0038052907,-0.0082631055,0.002353754,-126.73136,-14.972552,-110.671745
488597471401381,-0.0098202005,-0.8167223,9.852516,-0.0038052907,-0.0082631055,0.002353754,-126.73136,-14.972552,-110.671745
488597480271381,-0.0098202005,-0.8167223,9.852516,-0.0022072697,-0.007197758,0.0028864276,-126.73136,-14.972552,-110.671745
488597486221225,-0.0098202005,-0.8167223,9.852516,-0.0022072697,-0.007197758,0.0028864276,-127.964554,-16.524492,-109.25949
488597491483934,0.04047647,-0.8191174,9.8573065,-0.0022072697,-0.007197758,0.0028864276,-127.964554,-16.524492,-109.25949
488597500353934,0.04047647,-0.8191174,9.8573065,-0.0043379646,-0.0018710177,0.0034191022,-127.964554,-16.524492,-109.25949
488597506221225,0.04047647,-0.8191174,9.8573065,-0.0043379646,-0.0018710177,0.0034191022,-125.768684,-15.673096,-111.530106
488597520436486,0.04047647,-0.8191174,9.8573065,-0.004870639,0.002923049,0.0034191022,-125.768684,-15.673096,-111.530106
488597511566486,0.069217436,-0.8334879,9.847726,-0.004870639,0.002923049,0.0034191022,-125.768684,-15.673096,-111.530106
488597526221225,0.069217436,-0.8334879,9.847726,-0.004870639,0.002923049,0.0034191022,-127.58081,-15.458908,-111.428314
488597531648986,0.042871565,-0.8143273,9.84533,-0.004870639,0.002923049,0.0034191022,-127.58081,-15.458908,-111.428314
488597540518986,0.042871565,-0.8143273,9.84533,-0.0043379646,0.002923049,0.0034191022,-127.58081,-15.458908,-111.428314
488597546221225,0.042871565,-0.8143273,9.84533,-0.0043379646,0.002923049,0.0034191022,-127.56408,-15.047763,-109.926735
488597560601538,0.042871565,-0.8143273,9.84533,-0.0016745941,0.0013250262,0.003951776,-127.56408,-15.047763,-109.926735
488597551731538,-2.398789E-4,-0.8143273,9.82617,-0.0016745941,0.0013250262,0.003951776,-127.56408,-15.047763,-109.926735
488597566221225,-2.398789E-4,-0.8143273,9.82617,-0.0016745941,0.0013250262,0.003951776,-127.89061,-14.950773,-110.09049
488597580684090,-2.398789E-4,-0.8143273,9.82617,-0.0027399424,0.0023903754,0.0044844495,-127.89061,-14.950773,-110.09049
488597571814090,-0.0026349612,-0.804747,9.84533,-0.0027399424,0.0023903754,0.0044844495,-127.89061,-14.950773,-110.09049
488597586221225,-0.0026349612,-0.804747,9.84533,-0.0027399424,0.0023903754,0.0044844495,-128.89441,-15.188572,-110.709946
488597591896642,0.07879776,-0.8143273,9.828565,-0.0027399424,0.0023903754,0.0044844495,-128.89441,-15.188572,-110.709946
488597600766642,0.07879776,-0.8143273,9.828565,-0.007001335,0.004521071,0.003951776,-128.89441,-15.188572,-110.709946
488597606221225,0.07879776,-0.8143273,9.828565,-0.007001335,0.004521071,0.003951776,-130.20786,-14.91981,-110.143524
488597611979142,0.06442728,-0.8119322,9.828565,-0.007001335,0.004521071,0.003951776,-130.20786,-14.91981,-110.143524
488597620849142,0.06442728,-0.8119322,9.828565,-0.0038052907,0.0055864193,0.003951776,-130.20786,-14.91981,-110.143524
488597626221225,0.06442728,-0.8119322,9.828565,-0.0038052907,0.0055864193,0.003951776,-130.20786,-14.91981,-110.143524
488597632061694,0.023710921,-0.8215125,9.828565,-0.0038052907,0.0055864193,0.003951776,-130.20786,-14.91981,-110.143524
488597640931694,0.023710921,-0.8215125,9.828565,-0.0022072697,0.0034557227,0.003951776,-130.20786,-14.91981,-110.143524
488597646221225,0.023710921,-0.8215125,9.828565,-0.0022072697,0.0034557227,0.003951776,-128.19212,-14.332883,-110.88579
488597652144246,-0.01700544,-0.8143273,9.82617,-0.0022072697,0.0034557227,0.003951776,-128.19212,-14.332883,-110.88579
488597661014246,-0.01700544,-0.8143273,9.82617,-0.0016745941,0.002923049,0.0034191022,-128.19212,-14.332883,-110.88579
488597666221225,-0.01700544,-0.8143273,9.82617,-0.0016745941,0.002923049,0.0034191022,-127.860435,-14.288628,-109.81632
488597681096798,-0.01700544,-0.8143273,9.82617,-6.092468E-4,7.923525E-4,0.0034191022,-127.860435,-14.288628,-109.81632
488597672226798,0.0069453605,-0.8143273,9.809404,-6.092468E-4,7.923525E-4,0.0034191022,-127.860435,-14.288628,-109.81632
488597686221225,0.0069453605,-0.8143273,9.809404,-6.092468E-4,7.923525E-4,0.0034191022,-129.0869,-15.715064,-109.01777
488597692309350,0.045266636,-0.8119322,9.83096,-6.092468E-4,7.923525E-4,0.0034191022,-129.0869,-15.715064,-109.01777
488597701179350,0.045266636,-0.8119322,9.83096,-7.657218E-5,-0.0013383441,0.0034191022,-129.0869,-15.715064,-109.01777
488597706221225,0.045266636,-0.8119322,9.83096,-7.657218E-5,-0.0013383441,0.0034191022,-128.08202,-15.488288,-109.4619
488597712391902,0.050056793,-0.835883,9.835751,-7.657218E-5,-0.0013383441,0.0034191022,-128.08202,-15.488288,-109.4619
488597721261902,0.050056793,-0.835883,9.835751,-7.657218E-5,-0.0013383441,0.0034191022,-128.08202,-15.488288,-109.4619
488597726221225,0.050056793,-0.835883,9.835751,-7.657218E-5,-0.0013383441,0.0034191022,-128.54584,-14.734746,-108.29084
488597732474506,0.0069453605,-0.82869774,9.823775,-7.657218E-5,-0.0013383441,0.0034191022,-128.54584,-14.734746,-108.29084
488597741344506,0.0069453605,-0.82869774,9.823775,-7.657218E-5,-0.0024036914,0.0028864276,-128.54584,-14.734746,-108.29084
488597746221225,0.0069453605,-0.82869774,9.823775,-7.657218E-5,-0.0024036914,0.0028864276,-128.02057,-14.175019,-109.97714
488597752557059,-0.00742512,-0.8215125,9.833356,-7.657218E-5,-0.0024036914,0.0028864276,-128.02057,-14.175019,-109.97714
488597761427059,-0.00742512,-0.8215125,9.833356,-6.092468E-4,-2.7299486E-4,0.0034191022,-128.02057,-14.175019,-109.97714
488597766221225,-0.00742512,-0.8215125,9.833356,-6.092468E-4,-2.7299486E-4,0.0034191022,-126.40015,-14.923573,-109.146454
488597781509611,-0.00742512,-0.8215125,9.833356,-6.092468E-4,-2.7299486E-4,0.0034191022,-126.40015,-14.923573,-109.146454
488597772639611,0.016525678,-0.8167223,9.814195,-6.092468E-4,-2.7299486E-4,0.0034191022,-126.40015,-14.923573,-109.146454
488597786221225,0.016525678,-0.8167223,9.814195,-6.092468E-4,-2.7299486E-4,0.0034191022,-127.42224,-15.556769,-109.748085
488597792722215,0.04766172,-0.8167223,9.842936,-6.092468E-4,-2.7299486E-4,0.0034191022,-127.42224,-15.556769,-109.748085
488597801592215,0.04766172,-0.8167223,9.842936,-7.657218E-5,2.596788E-4,0.0034191022,-127.42224,-15.556769,-109.748085
488597806221225,0.04766172,-0.8167223,9.842936,-7.657218E-5,2.596788E-4,0.0034191022,-128.05183,-14.826142,-109.18773
488597812804767,0.042871565,-0.8143273,9.835751,-7.657218E-5,2.596788E-4,0.0034191022,-128.05183,-14.826142,-109.18773
488597821674767,0.042871565,-0.8143273,9.835751,-6.092468E-4,-2.7299486E-4,0.003951776,-128.05183,-14.826142,-109.18773
488597826221225,0.042871565,-0.8143273,9.835751,-6.092468E-4,-2.7299486E-4,0.003951776,-125.426834,-15.34477,-108.49729
488597832887371,0.002155196,-0.8119322,9.838145,-6.092468E-4,-2.7299486E-4,0.003951776,-125.426834,-15.34477,-108.49729
488597841757371,0.002155196,-0.8119322,9.838145,-6.092468E-4,2.596788E-4,0.003951776,-125.426834,-15.34477,-108.49729
488597846221225,0.002155196,-0.8119322,9.838145,-6.092468E-4,2.596788E-4,0.003951776,-126.811874,-16.673346,-109.37897
488597852969975,0.0069453605,-0.8263027,9.833356,-6.092468E-4,2.596788E-4,0.003951776,-126.811874,-16.673346,-109.37897
488597861839975,0.0069453605,-0.8263027,9.833356,-6.092468E-4,-2.7299486E-4,0.0034191022,-126.811874,-16.673346,-109.37897
488597866221225,0.0069453605,-0.8263027,9.833356,-6.092468E-4,-2.7299486E-4,0.0034191022,-127.33656,-13.714727,-110.135155
488597873052527,0.030896157,-0.82390755,9.840541,-6.092468E-4,-2.7299486E-4,0.0034191022,-127.33656,-13.714727,-110.135155
488597881922527,0.030896157,-0.82390755,9.840541,-7.657218E-5,-2.7299486E-4,0.0028864276,-127.33656,-13.714727,-110.135155
488597886221225,0.030896157,-0.82390755,9.840541,-7.657218E-5,-2.7299486E-4,0.0028864276,-127.21989,-14.743058,-109.173035
488597902005131,0.030896157,-0.82390755,9.840541,-6.092468E-4,2.596788E-4,0.003951776,-127.21989,-14.743058,-109.173035
488597893135131,0.04047647,-0.8263027,9.816589,-6.092468E-4,2.596788E-4,0.003951776,-127.21989,-14.743058,-109.173035
488597906221225,0.04047647,-0.8263027,9.816589,-6.092468E-4,2.596788E-4,0.003951776,-128.44589,-16.17422,-108.83031
488597922087684,0.04047647,-0.8263027,9.816589,-7.657218E-5,2.596788E-4,0.0034191022,-128.44589,-16.17422,-108.83031
488597913217684,0.023710921,-0.8191174,9.83096,-7.657218E-5,2.596788E-4,0.0034191022,-128.44589,-16.17422,-108.83031
488597926221225,0.023710921,-0.8191174,9.83096,-7.657218E-5,2.596788E-4,0.0034191022,-127.2016,-14.34766,-109.19086
488597933300288,0.02131584,-0.8143273,9.84533,-7.657218E-5,2.596788E-4,0.0034191022,-127.2016,-14.34766,-109.19086
488597942170288,0.02131584,-0.8143273,9.84533,-7.657218E-5,-8.0566853E-4,0.0034191022,-127.2016,-14.34766,-109.19086
488597946221225,0.02131584,-0.8143273,9.84533,-7.657218E-5,-8.0566853E-4,0.0034191022,-127.90968,-15.338298,-109.312965
488597953382892,0.01892076,-0.838278,9.840541,-7.657218E-5,-8.0566853E-4,0.0034191022,-127.90968,-15.338298,-109.312965
488597962252892,0.01892076,-0.838278,9.840541,-7.657218E-5,-2.7299486E-4,0.0034191022,-127.90968,-15.338298,-109.312965
488597966221225,0.01892076,-0.838278,9.840541,-7.657218E-5,-2.7299486E-4,0.0034191022,-128.06435,-15.086591,-108.87196
488597973465444,0.042871565,-0.8263027,9.8573065,-7.657218E-5,-2.7299486E-4,0.0034191022,-128.06435,-15.086591,-108.87196
488597982335444,0.042871565,-0.8263027,9.8573065,4.561015E-4,-8.0566853E-4,0.003951776,-128.06435,-15.086591,-108.87196
488597986221225,0.042871565,-0.8263027,9.8573065,4.561015E-4,-8.0566853E-4,0.003951776,-128.24199,-15.376255,-109.774666
488597993548048,0.028501078,-0.8167223,9.838145,4.561015E-4,-8.0566853E-4,0.003951776,-128.24199,-15.376255,-109.774666
488598002418048,0.028501078,-0.8167223,9.838145,4.561015E-4,-2.7299486E-4,0.0034191022,-128.24199,-15.376255,-109.774666
488598006221225,0.028501078,-0.8167223,9.838145,4.561015E-4,-2.7299486E-4,0.0034191022,-127.87997,-14.671428,-108.58297
488598022500600,0.028501078,-0.8167223,9.838145,-7.657218E-5,-8.0566853E-4,0.003951776,-127.87997,-14.671428,-108.58297
488598013630600,0.0117355175,-0.8263027,9.847726,-7.657218E-5,-8.0566853E-4,0.003951776,-127.87997,-14.671428,-108.58297
488598026221225,0.0117355175,-0.8263027,9.847726,-7.657218E-5,-8.0566853E-4,0.003951776,-126.21422,-14.524156,-110.37687
488598033713204,0.026106,-0.80953705,9.842936,-7.657218E-5,-8.0566853E-4,0.003951776,-126.21422,-14.524156,-110.37687
488598042583204,0.026106,-0.80953705,9.842936,-7.657218E-5,-2.7299486E-4,0.0034191022,-126.21422,-14.524156,-110.37687
488598046221225,0.026106,-0.80953705,9.842936,-7.657218E-5,-2.7299486E-4,0.0034191022,-127.8487,-14.020305,-109.37238
488598062665756,0.026106,-0.80953705,9.842936,4.561015E-4,2.596788E-4,0.0034191022,-127.8487,-14.020305,-109.37238
488598053795756,0.045266636,-0.82390755,9.833356,4.561015E-4,2.596788E-4,0.0034191022,-127.8487,-14.020305,-109.37238
488598066221225,0.045266636,-0.82390755,9.833356,4.561015E-4,2.596788E-4,0.0034191022,-127.2188,-14.754081,-110.23662
488598073878309,0.03568632,-0.8119322,9.850121,4.561015E-4,2.596788E-4,0.0034191022,-127.2188,-14.754081,-110.23662
488598082748309,0.03568632,-0.8119322,9.850121,4.561015E-4,-2.7299486E-4,0.0034191022,-127.2188,-14.754081,-110.23662
488598086221225,0.03568632,-0.8119322,9.850121,4.561015E-4,-2.7299486E-4,0.0034191022,-129.75809,-15.918056,-109.4794
488598102830913,0.03568632,-0.8119322,9.850121,4.561015E-4,2.596788E-4,0.0034191022,-129.75809,-15.918056,-109.4794
488598093960913,0.023710921,-0.82390755,9.838145,4.561015E-4,2.596788E-4,0.0034191022,-129.75809,-15.918056,-109.4794
488598106221225,0.023710921,-0.82390755,9.838145,4.561015E-4,2.596788E-4,0.0034191022,-127.985085,-13.3732,-108.9492
488598122913465,0.023710921,-0.82390755,9.838145,-7.657218E-5,2.596788E-4,0.0034191022,-127.985085,-13.3732,-108.9492
488598114043465,0.0117355175,-0.82869774,9.850121,-7.657218E-5,2.596788E-4,0.0034191022,-127.985085,-13.3732,-108.9492
488598126221225,0.0117355175,-0.82869774,9.850121,-7.657218E-5,2.596788E-4,0.0034191022,-128.00885,-13.906696,-109.533195
488598134126017,0.028501078,-0.838278,9.842936,-7.657218E-5,2.596788E-4,0.0034191022,-128.00885,-13.906696,-109.533195
488598142996017,0.028501078,-0.838278,9.842936,4.561015E-4,-2.7299486E-4,0.0034191022,-128.00885,-13.906696,-109.533195
488598146221225,0.028501078,-0.838278,9.842936,4.561015E-4,-2.7299486E-4,0.0034191022,-128.25465,-15.635129,-109.30696
488598154208621,0.026106,-0.8334879,9.838145,4.561015E-4,-2.7299486E-4,0.0034191022,-128.25465,-15.635129,-109.30696
488598163078621,0.026106,-0.8334879,9.838145,-7.657218E-5,-2.7299486E-4,0.0034191022,-128.25465,-15.635129,-109.30696
488598166221225,0.026106,-0.8334879,9.838145,-7.657218E-5,-2.7299486E-4,0.0034191022,-127.40942,-15.299469,-110.36773
488598183161173,0.026106,-0.8334879,9.838145,4.561015E-4,-2.7299486E-4,0.003951776,-127.40942,-15.299469,-110.36773
488598174291173,0.033291243,-0.8191174,9.84533,4.561015E-4,-2.7299486E-4,0.003951776,-127.40942,-15.299469,-110.36773
488598186221225,0.033291243,-0.8191174,9.84533,4.561015E-4,-2.7299486E-4,0.003951776,-128.05215,-14.822992,-108.88384
488598194373725,0.0141306,-0.835883,9.852516,4.561015E-4,-2.7299486E-4,0.003951776,-128.05215,-14.822992,-108.88384
488598203243725,0.0141306,-0.835883,9.852516,-7.657218E-5,2.596788E-4,0.003951776,-128.05215,-14.822992,-108.88384
488598206221225,0.0141306,-0.835883,9.852516,-7.657218E-5,2.596788E-4,0.003951776,-127.21755,-14.766679,-111.45215
488598223326329,0.0141306,-0.835883,9.852516,4.561015E-4,-2.7299486E-4,0.0034191022,-127.21755,-14.766679,-111.45215
488598214456329,0.02131584,-0.8143273,9.842936,4.561015E-4,-2.7299486E-4,0.0034191022,-127.21755,-14.766679,-111.45215
488598226221225,0.02131584,-0.8143273,9.842936,4.561015E-4,-2.7299486E-4,0.0034191022,-126.21531,-14.513133,-109.313286
488598234538881,0.03568632,-0.8191174,9.84533,4.561015E-4,-2.7299486E-4,0.0034191022,-126.21531,-14.513133,-109.313286
488598243408881,0.03568632,-0.8191174,9.84533,4.561015E-4,-8.0566853E-4,0.0034191022,-126.21531,-14.513133,-109.313286
488598246221225,0.03568632,-0.8191174,9.84533,4.561015E-4,-8.0566853E-4,0.0034191022,-126.688675,-14.049957,-110.71333
488598254621486,0.026106,-0.8167223,9.869282,4.561015E-4,-8.0566853E-4,0.0034191022,-126.688675,-14.049957,-110.71333
488598263491486,0.026106,-0.8167223,9.869282,4.561015E-4,-2.7299486E-4,0.0034191022,-126.688675,-14.049957,-110.71333
488598266221225,0.026106,-0.8167223,9.869282,4.561015E-4,-2.7299486E-4,0.0034191022,-127.42302,-15.548896,-108.98838
488598274704038,0.028501078,-0.8263027,9.833356,4.561015E-4,-2.7299486E-4,0.0034191022,-127.42302,-15.548896,-108.98838
488598283574038,0.028501078,-0.8263027,9.833356,-7.657218E-5,-2.7299486E-4,0.0034191022,-127.42302,-15.548896,-108.98838
488598286221225,0.028501078,-0.8263027,9.833356,-7.657218E-5,-2.7299486E-4,0.0034191022,-128.39679,-15.122973,-109.181725
488598294786642,0.026106,-0.8167223,9.854912,-7.657218E-5,-2.7299486E-4,0.0034191022,-128.39679,-15.122973,-109.181725
488598303656642,0.026106,-0.8167223,9.854912,4.561015E-4,-2.7299486E-4,0.003951776,-128.39679,-15.122973,-109.181725
488598306221225,0.026106,-0.8167223,9.854912,4.561015E-4,-2.7299486E-4,0.003951776,-128.39679,-15.122973,-109.181725
488598314869194,0.023710921,-0.82390755,9.862096,4.561015E-4,-2.7299486E-4,0.003951776,-128.39679,-15.122973,-109.181725
488598323739194,0.023710921,-0.82390755,9.862096,4.561015E-4,-2.7299486E-4,0.0034191022,-128.39679,-15.122973,-109.181725
488598326221225,0.023710921,-0.82390755,9.862096,4.561015E-4,-2.7299486E-4,0.0034191022,-125.587585,-15.224863,-108.05035
488598334951798,0.033291243,-0.82869774,9.838145,4.561015E-4,-2.7299486E-4,0.0034191022,-125.587585,-15.224863,-108.05035
488598343821798,0.033291243,-0.82869774,9.838145,4.561015E-4,-2.7299486E-4,0.0034191022,-125.587585,-15.224863,-108.05035
488598346221225,0.033291243,-0.82869774,9.838145,4.561015E-4,-2.7299486E-4,0.0034191022,-127.596436,-15.687863,-108.07373
488598363904350,0.033291243,-0.82869774,9.838145,4.561015E-4,2.596788E-4,0.0034191022,-127.596436,-15.687863,-108.07373
488598355034350,0.038081393,-0.8334879,9.847726,4.561015E-4,2.596788E-4,0.0034191022,-127.596436,-15.687863,-108.07373
488598366221225,0.038081393,-0.8334879,9.847726,4.561015E-4,2.596788E-4,0.0034191022,-126.71886,-14.712103,-110.9875
488598383986954,0.038081393,-0.8334879,9.847726,-7.657218E-5,2.596788E-4,0.0034191022,-126.71886,-14.712103,-110.9875
488598375116954,0.030896157,-0.8191174,9.842936,-7.657218E-5,2.596788E-4,0.0034191022,-126.71886,-14.712103,-110.9875
488598386221225,0.030896157,-0.8191174,9.842936,-7.657218E-5,2.596788E-4,0.0034191022,-126.41921,-15.311097,-108.36893
488598404069506,0.030896157,-0.8191174,9.842936,4.561015E-4,-2.7299486E-4,0.0034191022,-126.41921,-15.311097,-108.36893
488598395199506,0.01892076,-0.8310928,9.84533,4.561015E-4,-2.7299486E-4,0.0034191022,-126.41921,-15.311097,-108.36893
488598406221225,0.01892076,-0.8310928,9.84533,4.561015E-4,-2.7299486E-4,0.0034191022,-129.75839,-15.9149065,-109.17552
488598424152111,0.01892076,-0.8310928,9.84533,9.887756E-4,2.596788E-4,0.003951776,-129.75839,-15.9149065,-109.17552
488598415282111,0.030896157,-0.82390755,9.854912,9.887756E-4,2.596788E-4,0.003951776,-129.75839,-15.9149065,-109.17552
488598426221225,0.030896157,-0.82390755,9.854912,9.887756E-4,2.596788E-4,0.003951776,-127.21989,-14.743058,-109.173035
488598444234715,0.030896157,-0.82390755,9.854912,-7.657218E-5,-2.7299486E-4,0.003951776,-127.21989,-14.743058,-109.173035
488598435364715,0.01892076,-0.8215125,9.842936,-7.657218E-5,-2.7299486E-4,0.003951776,-127.21989,-14.743058,-109.173035
488598446221225,0.01892076,-0.8215125,9.842936,-7.657218E-5,-2.7299486E-4,0.003951776,-129.19902,-14.539187,-108.46642
488598464317267,0.01892076,-0.8215125,9.842936,4.561015E-4,-2.7299486E-4,0.0034191022,-129.19902,-14.539187,-108.46642
488598455447267,0.023710921,-0.8191174,9.84533,4.561015E-4,-2.7299486E-4,0.0034191022,-129.19902,-14.539187,-108.46642
488598466221225,0.023710921,-0.8191174,9.84533,4.561015E-4,-2.7299486E-4,0.0034191022,-128.57555,-15.401616,-109.020836
488598484399871,0.023710921,-0.8191174,9.84533,-7.657218E-5,-2.7299486E-4,0.0034191022,-128.57555,-15.401616,-109.020836
488598475529871,0.0117355175,-0.8119322,9.838145,-7.657218E-5,-2.7299486E-4,0.0034191022,-128.57555,-15.401616,-109.020836
488598486221225,0.0117355175,-0.8119322,9.838145,-7.657218E-5,-2.7299486E-4,0.0034191022,-127.017075,-13.934072,-109.0538
488598504482423,0.0117355175,-0.8119322,9.838145,-7.657218E-5,2.596788E-4,0.003951776,-127.017075,-13.934072,-109.0538
488598495612423,0.03568632,-0.82390755,9.84533,-7.657218E-5,2.596788E-4,0.003951776,-127.017075,-13.934072,-109.0538
488598506221225,0.03568632,-0.82390755,9.84533,-7.657218E-5,2.596788E-4,0.003951776,-128.09373,-15.756612,-109.90584
488598524565027,0.03568632,-0.82390755,9.84533,9.887756E-4,-2.7299486E-4,0.003951776,-128.09373,-15.756612,-109.90584
488598515695027,0.03568632,-0.8310928,9.8573065,9.887756E-4,-2.7299486E-4,0.003951776,-128.09373,-15.756612,-109.90584
488598526221225,0.03568632,-0.8310928,9.8573065,9.887756E-4,-2.7299486E-4,0.003951776,-126.53057,-14.143094,-108.577286
488598544647579,0.03568632,-0.8310928,9.8573065,4.561015E-4,2.596788E-4,0.005017124,-126.53057,-14.143094,-108.577286
488598535777579,0.026106,-0.8263027,9.84533,4.561015E-4,2.596788E-4,0.005017124,-126.53057,-14.143094,-108.577286
488598546221225,0.026106,-0.8263027,9.84533,4.561015E-4,2.596788E-4,0.005017124,-128.52646,-14.35037,-109.37225
488598564730184,0.026106,-0.8263027,9.84533,4.561015E-4,-2.7299486E-4,0.003951776,-128.52646,-14.35037,-109.37225
488598555860184,0.03568632,-0.838278,9.847726,4.561015E-4,-2.7299486E-4,0.003951776,-128.52646,-14.35037,-109.37225
488598566221225,0.03568632,-0.838278,9.847726,4.561015E-4,-2.7299486E-4,0.003951776,-129.377,-14.825704,-109.06524
488598575942736,0.02131584,-0.8143273,9.838145,4.561015E-4,-2.7299486E-4,0.003951776,-129.377,-14.825704,-109.06524
488598584812736,0.02131584,-0.8143273,9.838145,4.561015E-4,2.596788E-4,0.0034191022,-129.377,-14.825704,-109.06524
488598586221225,0.02131584,-0.8143273,9.838145,4.561015E-4,2.596788E-4,0.0034191022,-128.05028,-14.841889,-110.70714
488598604895340,0.02131584,-0.8143273,9.838145,4.561015E-4,2.596788E-4,0.0034191022,-128.05028,-14.841889,-110.70714
488598596025340,0.01892076,-0.8215125,9.850121,4.561015E-4,2.596788E-4,0.0034191022,-128.05028,-14.841889,-110.70714
488598606221225,0.01892076,-0.8215125,9.850121,4.561015E-4,2.596788E-4,0.0034191022,-128.25543,-15.627255,-108.54726
488598624977892,0.01892076,-0.8215125,9.850121,4.561015E-4,2.596788E-4,0.0034191022,-128.25543,-15.627255,-108.54726
488598616107892,0.028501078,-0.838278,9.847726,4.561015E-4,2.596788E-4,0.0034191022,-128.25543,-15.627255,-108.54726
488598626221225,0.028501078,-0.838278,9.847726,4.561015E-4,2.596788E-4,0.0034191022,-128.08342,-15.474115,-108.09443
488598636190496,0.030896157,-0.8167223,9.84533,4.561015E-4,2.596788E-4,0.0034191022,-128.08342,-15.474115,-108.09443
488598645060496,0.030896157,-0.8167223,9.84533,4.561015E-4,2.596788E-4,0.0034191022,-128.08342,-15.474115,-108.09443
488598646221225,0.030896157,-0.8167223,9.84533,4.561015E-4,2.596788E-4,0.0034191022,-128.58852,-15.657341,-108.249245
488598665143048,0.030896157,-0.8167223,9.84533,-6.092468E-4,2.596788E-4,0.0034191022,-128.58852,-15.657341,-108.249245
488598656273048,0.026106,-0.82869774,9.84533,-6.092468E-4,2.596788E-4,0.0034191022,-128.58852,-15.657341,-108.249245
488598666221225,0.026106,-0.82869774,9.84533,-6.092468E-4,2.596788E-4,0.0034191022,-125.715675,-14.468006,-109.76029
488598676355652,0.02131584,-0.8167223,9.854912,-6.092468E-4,2.596788E-4,0.0034191022,-125.715675,-14.468006,-109.76029
488598685225652,0.02131584,-0.8167223,9.854912,-7.657218E-5,2.596788E-4,0.003951776,-125.715675,-14.468006,-109.76029
488598686221225,0.02131584,-0.8167223,9.854912,-7.657218E-5,2.596788E-4,0.003951776,-126.21453,-14.521007,-110.07299
488598696438204,0.016525678,-0.82869774,9.852516,-7.657218E-5,2.596788E-4,0.003951776,-126.21453,-14.521007,-110.07299
488598705308204,0.016525678,-0.82869774,9.852516,-6.092468E-4,-2.7299486E-4,0.0034191022,-126.21453,-14.521007,-110.07299
488598706221225,0.016525678,-0.82869774,9.852516,-6.092468E-4,-2.7299486E-4,0.0034191022,-128.1932,-14.32186,-109.8222
488598725390809,0.016525678,-0.82869774,9.852516,4.561015E-4,2.596788E-4,0.0034191022,-128.1932,-14.32186,-109.8222
488598716520809,0.02131584,-0.8215125,9.847726,4.561015E-4,2.596788E-4,0.0034191022,-128.1932,-14.32186,-109.8222
488598726221225,0.02131584,-0.8215125,9.847726,4.561015E-4,2.596788E-4,0.0034191022,-127.250374,-15.402055,-109.143326
488598745473361,0.02131584,-0.8215125,9.847726,-7.657218E-5,-2.7299486E-4,0.0034191022,-127.250374,-15.402055,-109.143326
488598736603361,0.033291243,-0.82390755,9.840541,-7.657218E-5,-2.7299486E-4,0.0034191022,-127.250374,-15.402055,-109.143326
488598746221225,0.033291243,-0.82390755,9.840541,-7.657218E-5,-2.7299486E-4,0.0034191022,-128.95616,-16.498692,-109.89082
488598765555965,0.033291243,-0.82390755,9.840541,-6.092468E-4,-8.0566853E-4,0.003951776,-128.95616,-16.498692,-109.89082
488598756685965,0.04047647,-0.838278,9.852516,-6.092468E-4,-8.0566853E-4,0.003951776,-128.95616,-16.498692,-109.89082
488598766221225,0.04047647,-0.838278,9.852516,-6.092468E-4,-8.0566853E-4,0.003951776,-128.41478,-15.521521,-109.46777
488598785638517,0.04047647,-0.838278,9.852516,-7.657218E-5,-2.7299486E-4,0.003951776,-128.41478,-15.521521,-109.46777
488598776768517,0.02131584,-0.8263027,9.842936,-7.657218E-5,-2.7299486E-4,0.003951776,-128.41478,-15.521521,-109.46777
488598786221225,0.02131584,-0.8263027,9.842936,-7.657218E-5,-2.7299486E-4,0.003951776,-126.7631,-15.618952,-109.426506
488598805721121,0.02131584,-0.8263027,9.842936,4.561015E-4,-2.7299486E-4,0.0034191022,-126.7631,-15.618952,-109.426506
488598796851121,0.016525678,-0.838278,9.854912,4.561015E-4,-2.7299486E-4,0.0034191022,-126.7631,-15.618952,-109.426506
