time,aX,aY,aZ,wX,wY,wZ,mX,mY,mZ
191,0.13047838,0.033517383,9.63146,0.001195004,-0.001221729,5.54E-04,-16.16275,-5.475662,-62.994164
205,0.11611379,0.026335087,9.629065,8.90E-04,-9.16E-04,-3.63E-04,-16.16275,-5.475662,-62.994164
210,0.11611379,0.026335087,9.629065,8.90E-04,-9.16E-04,-3.63E-04,-14.634201,-4.9999695,-63.777443
225,0.12209904,0.035911478,9.662583,-9.43E-04,-3.05E-04,-0.001278999,-14.634201,-4.9999695,-63.777443
231,0.12209904,0.035911478,9.662583,-9.43E-04,-3.05E-04,-0.001278999,-14.918579,-4.1445312,-64.08164
245,0.13526657,0.038305577,9.649415,8.90E-04,9.16E-04,-9.74E-04,-14.918579,-4.1445312,-64.08164
251,0.13526657,0.038305577,9.649415,8.90E-04,9.16E-04,-9.74E-04,-14.488342,-5.2840576,-63.625282
262,0.13526657,0.038305577,9.649415,8.90E-04,9.16E-04,-9.74E-04,-14.488342,-5.2840576,-63.625282
265,0.14005478,0.049079023,9.638641,-0.001553888,3.05E-04,-3.63E-04,-14.488342,-5.2840576,-63.625282
271,0.14005478,0.049079023,9.638641,-0.001553888,3.05E-04,-3.63E-04,-14.488342,-5.2840576,-63.625282
285,0.13646364,0.029926233,9.627868,2.79E-04,0,-5.73E-05,-14.488342,-5.2840576,-63.625282
291,0.13646364,0.029926233,9.627868,2.79E-04,0,-5.73E-05,-15.398483,-5.0176544,-64.23133
305,0.12569019,0.03471443,9.624277,0.002111301,-9.16E-04,-9.74E-04,-15.398483,-5.0176544,-64.23133
310,0.12569019,0.03471443,9.624277,0.002111301,-9.16E-04,-9.74E-04,-15.225082,-4.150917,-64.38621
325,0.13406953,0.03471443,9.655401,0.003027598,0,8.59E-04,-15.225082,-4.150917,-64.38621
331,0.13406953,0.03471443,9.655401,0.003027598,0,8.59E-04,-14.340775,-5.4227905,-63.780556
344,0.12928134,0.037108533,9.648218,-2.67E-05,0,2.48E-04,-14.340775,-5.4227905,-63.780556
351,0.12928134,0.037108533,9.648218,-2.67E-05,0,2.48E-04,-15.23616,-4.581833,-64.386375
364,0.14843412,0.029926233,9.6374445,-2.67E-05,0,2.48E-04,-15.23616,-4.581833,-64.386375
365,0.14843412,0.029926233,9.6374445,2.79E-04,-6.11E-04,5.54E-04,-15.23616,-4.581833,-64.386375
371,0.14843412,0.029926233,9.6374445,2.79E-04,-6.11E-04,5.54E-04,-15.989349,-4.1686096,-64.840096
385,0.11970495,0.028729185,9.626671,-9.43E-04,-6.11E-04,-3.63E-04,-15.989349,-4.1686096,-64.840096
391,0.11970495,0.028729185,9.626671,-9.43E-04,-6.11E-04,-3.63E-04,-15.68486,-4.160507,-64.84304
404,0.09815805,0.049079023,9.648218,5.84E-04,-0.001221729,-6.68E-04,-15.68486,-4.160507,-64.84304
410,0.09815805,0.049079023,9.648218,5.84E-04,-0.001221729,-6.68E-04,-14.023529,-4.8384323,-64.09077
424,0.12569019,0.03471443,9.656597,5.84E-04,-0.001221729,-6.68E-04,-14.023529,-4.8384323,-64.09077
425,0.12569019,0.03471443,9.656597,2.79E-04,-9.16E-04,0.001469892,-14.023529,-4.8384323,-64.09077
431,0.12569019,0.03471443,9.656597,2.79E-04,-9.16E-04,0.001469892,-15.23114,-4.5861053,-63.617638
444,0.13646364,0.031123284,9.65181,2.79E-04,-9.16E-04,0.001469892,-15.23114,-4.5861053,-63.617638
445,0.13646364,0.031123284,9.65181,-3.32E-04,-0.002138027,-3.63E-04,-15.23114,-4.5861053,-63.617638
451,0.13646364,0.031123284,9.65181,-3.32E-04,-0.002138027,-3.63E-04,-16.159729,-5.037903,-64.223976
462,0.13646364,0.031123284,9.65181,-3.32E-04,-0.002138027,-3.63E-04,-16.159729,-5.037903,-64.223976
464,0.13167544,0.03471443,9.632656,-2.67E-05,-0.003054325,5.54E-04,-16.159729,-5.037903,-64.223976
471,0.13167544,0.03471443,9.632656,-2.67E-05,-0.003054325,5.54E-04,-14.634201,-4.9999695,-63.777443
484,0.14005479,0.03471443,9.621882,-2.67E-05,-0.003054325,5.54E-04,-14.634201,-4.9999695,-63.777443
485,0.14005479,0.03471443,9.621882,8.90E-04,0.001832594,2.48E-04,-14.634201,-4.9999695,-63.777443
491,0.14005479,0.03471443,9.621882,8.90E-04,0.001832594,2.48E-04,-15.23851,-4.87339,-63.61776
504,0.13646364,0.03950263,9.642233,8.90E-04,0.001832594,2.48E-04,-15.23851,-4.87339,-63.61776
505,0.13646364,0.03950263,9.642233,0.001195004,-3.05E-04,-3.63E-04,-15.23851,-4.87339,-63.61776
510,0.13646364,0.03950263,9.642233,0.001195004,-3.05E-04,-3.63E-04,-15.838776,-4.3098984,-64.53413
524,0.13047838,0.031123284,9.64702,-0.001859319,0.001221729,0.001775325,-15.838776,-4.3098984,-64.53413
531,0.13047838,0.031123284,9.64702,-0.001859319,0.001221729,0.001775325,-15.820984,-3.2975845,-65.76371
544,0.12928134,0.04309378,9.653006,-0.001859319,0,-3.63E-04,-15.820984,-3.2975845,-65.76371
551,0.12928134,0.04309378,9.653006,-0.001859319,0,-3.63E-04,-16.412231,-3.182106,-63.605278
564,0.12808429,0.031123282,9.6290655,-2.67E-05,3.05E-04,0.001469892,-16.412231,-3.182106,-63.605278
571,0.12808429,0.031123282,9.6290655,-2.67E-05,3.05E-04,0.001469892,-16.143936,-4.02388,-65.76107
584,0.14963117,0.03471443,9.63505,-0.002470184,3.05E-04,2.48E-04,-16.143936,-4.02388,-65.76107
591,0.14963117,0.03471443,9.63505,-0.002470184,3.05E-04,2.48E-04,-15.977936,-3.4444199,-65.91605
604,0.13526657,0.040699676,9.658992,0.001500437,-0.001221729,-0.001889864,-15.977936,-3.4444199,-65.91605
610,0.13526657,0.040699676,9.658992,0.001500437,-0.001221729,-0.001889864,-15.2391815,-4.5792694,-64.84763
624,0.12209904,0.05745837,9.650612,2.79E-04,3.05E-04,-3.63E-04,-15.2391815,-4.5792694,-64.84763
631,0.12209904,0.05745837,9.650612,2.79E-04,3.05E-04,-3.63E-04,-17.308945,-2.1932297,-64.979774
644,0.10294625,0.03232033,9.633853,0.001195004,6.11E-04,-6.68E-04,-17.308945,-2.1932297,-64.979774
651,0.10294625,0.03232033,9.633853,0.001195004,6.11E-04,-6.68E-04,-15.676819,-4.167343,-63.613045
662,0.10294625,0.03232033,9.633853,0.001195004,6.11E-04,-6.68E-04,-15.676819,-4.167343,-63.613045
663,0.10294625,0.03232033,9.633853,-2.67E-05,-3.05E-04,-5.73E-05,-15.676819,-4.167343,-63.613045
664,0.12090199,0.03950263,9.618292,-2.67E-05,-3.05E-04,-5.73E-05,-15.676819,-4.167343,-63.613045
671,0.12090199,0.03950263,9.618292,-2.67E-05,-3.05E-04,-5.73E-05,-16.434692,-3.4565659,-65.911644
684,0.15801051,0.022743938,9.636248,2.79E-04,0.001221729,-5.73E-05,-16.434692,-3.4565659,-65.911644
691,0.15801051,0.022743938,9.636248,2.79E-04,0.001221729,-5.73E-05,-15.676819,-4.167343,-63.613045
704,0.14364593,0.033517383,9.650612,0.001805869,3.05E-04,8.59E-04,-15.676819,-4.167343,-63.613045
710,0.14364593,0.033517383,9.650612,0.001805869,3.05E-04,8.59E-04,-15.007751,-1.8537598,-63.46421
724,0.12569019,0.038305577,9.633854,2.79E-04,6.11E-04,2.48E-04,-15.007751,-1.8537598,-63.46421
731,0.12569019,0.038305577,9.633854,2.79E-04,6.11E-04,2.48E-04,-16.101349,-2.885872,-63.761833
744,0.10893149,0.03591148,9.635051,-3.32E-04,-3.05E-04,0.00116446,-16.101349,-2.885872,-63.761833
751,0.10893149,0.03591148,9.635051,-3.32E-04,-3.05E-04,0.00116446,-16.097977,-2.1548462,-66.06779
763,0.13646364,0.04309378,9.638641,-2.67E-05,0,2.48E-04,-16.097977,-2.1548462,-66.06779
771,0.13646364,0.04309378,9.638641,-2.67E-05,0,2.48E-04,-16.752625,-4.1871414,-65.14025
784,0.13766068,0.044290826,9.633853,5.84E-04,6.11E-04,-3.63E-04,-16.752625,-4.1871414,-65.14025
791,0.13766068,0.044290826,9.633853,5.84E-04,6.11E-04,-3.63E-04,-15.847839,-4.7425385,-64.2268
804,0.13047838,0.050276075,9.653006,-9.43E-04,0.001221729,-6.68E-04,-15.847839,-4.7425385,-64.2268
811,0.13047838,0.050276075,9.653006,-9.43E-04,0.001221729,-6.68E-04,-17.188904,-3.4828033,-64.82804
823,0.13047838,0.050276075,9.653006,5.84E-04,3.05E-04,8.59E-04,-17.188904,-3.4828033,-64.82804
824,0.13047838,0.03830558,9.65181,5.84E-04,3.05E-04,8.59E-04,-17.188904,-3.4828033,-64.82804
831,0.13047838,0.03830558,9.65181,5.84E-04,3.05E-04,8.59E-04,-15.834412,-4.0200577,-64.99525
844,0.12808429,0.025138037,9.632656,5.84E-04,3.05E-04,2.48E-04,-15.834412,-4.0200577,-64.99525
851,0.12808429,0.025138037,9.632656,5.84E-04,3.05E-04,2.48E-04,-15.21167,-3.4284363,-65.154655
862,0.12808429,0.025138037,9.632656,5.84E-04,3.05E-04,2.48E-04,-15.21167,-3.4284363,-65.154655
863,0.14005478,0.032320336,9.631458,-6.38E-04,-6.11E-04,8.59E-04,-15.21167,-3.4284363,-65.154655
871,0.14005478,0.032320336,9.631458,-6.38E-04,-6.11E-04,8.59E-04,-15.697937,-4.5897064,-65.15072
883,0.13766068,0.03950263,9.631458,-6.38E-04,-6.11E-04,8.59E-04,-15.697937,-4.5897064,-65.15072
884,0.13766068,0.03950263,9.631458,-9.43E-04,-6.11E-04,-5.73E-05,-15.697937,-4.5897064,-65.15072
893,0.13766068,0.03950263,9.631458,-9.43E-04,-6.11E-04,-5.73E-05,-14.440369,-3.4167404,-63.624504
906,0.12090199,0.022743937,9.644627,-0.001248455,-6.11E-04,0.002080757,-14.440369,-3.4167404,-63.624504
912,0.12090199,0.022743937,9.644627,-0.001248455,-6.11E-04,0.002080757,-16.724121,-3.4774933,-63.602455
928,0.11731084,0.040699676,9.643429,-0.001248455,-6.11E-04,0.002080757,-16.724121,-3.4774933,-63.602455
930,0.11731084,0.040699676,9.643429,5.84E-04,-6.11E-04,-9.74E-04,-16.724121,-3.4774933,-63.602455
934,0.11731084,0.040699676,9.643429,5.84E-04,-6.11E-04,-9.74E-04,-16.581573,-3.611946,-64.52648
946,0.13526657,0.026335087,9.631458,-3.32E-04,6.11E-04,-0.002806161,-16.581573,-3.611946,-64.52648
953,0.13526657,0.026335087,9.631458,-3.32E-04,6.11E-04,-0.002806161,-14.498398,-5.275505,-65.16279
964,0.13287249,0.045487873,9.632656,8.90E-04,-0.001832595,-0.001584431,-14.498398,-5.275505,-65.16279
974,0.13287249,0.045487873,9.632656,8.90E-04,-0.001832595,-0.001584431,-13.867935,-4.9839935,-63.01603
987,0.13766068,0.029926235,9.655401,8.90E-04,-0.001832595,-0.001584431,-13.867935,-4.9839935,-63.01603
988,0.13766068,0.029926235,9.655401,-9.43E-04,-6.11E-04,-3.63E-04,-13.867935,-4.9839935,-63.01603
992,0.13766068,0.029926235,9.655401,-9.43E-04,-6.11E-04,-3.63E-04,-14.618774,-4.2792053,-64.23838
1007,0.13406953,0.035911478,9.645824,-9.43E-04,-6.11E-04,-3.63E-04,-14.618774,-4.2792053,-64.23838
1008,0.13406953,0.035911478,9.645824,-3.32E-04,0.002138026,-0.001278999,-14.618774,-4.2792053,-64.23838
1012,0.13406953,0.035911478,9.645824,-3.32E-04,0.002138026,-0.001278999,-13.986618,-3.402031,-64.09016
1025,0.12688723,0.051473122,9.630262,-3.32E-04,0.002138026,-0.001278999,-13.986618,-3.402031,-64.09016
1028,0.12688723,0.051473122,9.630262,8.90E-04,0.001832594,-0.001889864,-13.986618,-3.402031,-64.09016
1033,0.12688723,0.051473122,9.630262,8.90E-04,0.001832594,-0.001889864,-16.393112,-2.3177032,-64.066154
1046,0.12090199,0.033517383,9.626671,8.90E-04,0.001832594,-0.001889864,-16.393112,-2.3177032,-64.066154
1047,0.12090199,0.033517383,9.626671,-3.32E-04,6.11E-04,5.54E-04,-16.393112,-2.3177032,-64.066154
1053,0.12090199,0.033517383,9.626671,-3.32E-04,6.11E-04,5.54E-04,-16.422287,-3.1735535,-65.14277
1065,0.12090199,0.03710853,9.635051,-3.32E-04,3.05E-04,0.00116446,-16.422287,-3.1735535,-65.14277
1066,0.12090199,0.03710853,9.635051,-3.32E-04,3.05E-04,0.00116446,-16.422287,-3.1735535,-65.14277
1073,0.12090199,0.03710853,9.635051,-3.32E-04,3.05E-04,0.00116446,-16.422287,-3.1735535,-65.14277
1085,0.13526657,0.033517383,9.636248,-3.32E-04,3.05E-04,0.00116446,-16.422287,-3.1735535,-65.14277
1087,0.13526657,0.033517383,9.636248,-2.67E-05,0,8.59E-04,-16.422287,-3.1735535,-65.14277
1094,0.13526657,0.033517383,9.636248,-2.67E-05,0,8.59E-04,-15.844818,-4.745102,-63.765556
1107,0.13766068,0.03950263,9.6458235,-2.67E-05,0,8.59E-04,-15.844818,-4.745102,-63.765556
1108,0.13766068,0.03950263,9.6458235,0.001500437,3.05E-04,-0.001278999,-15.844818,-4.745102,-63.765556
1115,0.13766068,0.03950263,9.6458235,0.001500437,3.05E-04,-0.001278999,-16.415253,-3.1795425,-64.06652
1127,0.14125183,0.04189673,9.6374445,0.002111301,6.11E-04,5.54E-04,-16.415253,-3.1795425,-64.06652
1132,0.14125183,0.04189673,9.6374445,0.002111301,6.11E-04,5.54E-04,-17.773743,-2.6388779,-64.51429
1146,0.12808429,0.04189673,9.632656,2.79E-04,3.05E-04,-3.63E-04,-17.773743,-2.6388779,-64.51429
1155,0.12808429,0.04189673,9.632656,2.79E-04,3.05E-04,-3.63E-04,-15.965881,-3.4546814,-64.07105
1165,0.12090199,0.025138035,9.650612,-6.38E-04,-3.05E-04,0.002080757,-15.965881,-3.4546814,-64.07105
1176,0.12090199,0.025138035,9.650612,-6.38E-04,-3.05E-04,0.002080757,-15.2066345,-3.4327164,-64.3859
1185,0.13406953,0.029926233,9.657795,-6.38E-04,-3.05E-04,0.002080757,-15.2066345,-3.4327164,-64.3859
1187,0.13406953,0.029926233,9.657795,0.001805869,-3.05E-04,8.59E-04,-15.2066345,-3.4327164,-64.3859
1195,0.13406953,0.029926233,9.657795,0.001805869,-3.05E-04,8.59E-04,-15.054047,-3.5757217,-63.772423
1206,0.12329608,0.03710853,9.642233,0.001805869,-3.05E-04,8.59E-04,-15.054047,-3.5757217,-63.772423
1208,0.12329608,0.03710853,9.642233,-2.67E-05,9.16E-04,-5.73E-05,-15.054047,-3.5757217,-63.772423
1212,0.12329608,0.03710853,9.642233,-2.67E-05,9.16E-04,-5.73E-05,-16.141281,-4.319702,-64.22369
1226,0.13526659,0.031123282,9.626671,-2.67E-05,9.16E-04,-5.73E-05,-16.141281,-4.319702,-64.22369
1227,0.13526659,0.031123282,9.626671,5.84E-04,-3.05E-04,2.48E-04,-16.141281,-4.319702,-64.22369
1234,0.13526659,0.031123282,9.626671,5.84E-04,-3.05E-04,2.48E-04,-17.50447,-3.9218216,-64.82528
1246,0.12449314,0.040699676,9.635051,-0.001248455,-9.16E-04,0.00116446,-17.50447,-3.9218216,-64.82528
1255,0.12449314,0.040699676,9.635051,-0.001248455,-9.16E-04,0.00116446,-15.949432,-2.7347717,-64.37826
1266,0.12209904,0.04309378,9.639838,5.84E-04,-3.05E-04,2.48E-04,-15.949432,-2.7347717,-64.37826
1275,0.12209904,0.04309378,9.639838,5.84E-04,-3.05E-04,2.48E-04,-15.810944,-3.306137,-64.226204
1285,0.11611379,0.029926235,9.650612,-6.38E-04,-3.05E-04,8.59E-04,-15.810944,-3.306137,-64.226204
1294,0.11611379,0.029926235,9.650612,-6.38E-04,-3.05E-04,8.59E-04,-17.183533,-3.1938019,-65.13543
1306,0.13167544,0.046684925,9.642233,-6.38E-04,-3.05E-04,8.59E-04,-17.183533,-3.1938019,-65.13543
1308,0.13167544,0.046684925,9.642233,5.84E-04,-6.11E-04,-3.63E-04,-17.183533,-3.1938019,-65.13543
1312,0.13167544,0.046684925,9.642233,5.84E-04,-6.11E-04,-3.63E-04,-17.01889,-3.3470764,-62.67695
1327,0.13885772,0.03830558,9.63505,5.84E-04,-6.11E-04,-3.63E-04,-17.01889,-3.3470764,-62.67695
1329,0.13885772,0.03830558,9.63505,2.79E-04,-9.16E-04,0.001469892,-17.01889,-3.3470764,-62.67695
1335,0.13885772,0.03830558,9.63505,2.79E-04,-9.16E-04,0.001469892,-14.583878,-2.8411026,-64.54528
1347,0.12329608,0.03830558,9.629065,2.79E-04,-3.05E-04,-0.003111593,-14.583878,-2.8411026,-64.54528
1354,0.12329608,0.03830558,9.629065,2.79E-04,-3.05E-04,-0.003111593,-15.8293915,-4.024338,-64.22651
1364,0.11970494,0.04189673,9.636248,2.79E-04,-3.05E-04,-0.003111593,-15.8293915,-4.024338,-64.22651
1366,0.11970494,0.04189673,9.636248,-2.67E-05,-3.05E-04,-5.73E-05,-15.8293915,-4.024338,-64.22651
1373,0.11970494,0.04189673,9.636248,-2.67E-05,-3.05E-04,-5.73E-05,-14.480286,-4.8505783,-64.08634
1385,0.11850789,0.023940988,9.653006,2.79E-04,3.05E-04,-3.63E-04,-14.480286,-4.8505783,-64.08634
1397,0.11850789,0.023940988,9.653006,2.79E-04,3.05E-04,-3.63E-04,-15.67984,-4.1647797,-64.07429
1406,0.12928134,0.03710853,9.627869,2.79E-04,3.05E-04,-3.63E-04,-15.67984,-4.1647797,-64.07429
1408,0.12928134,0.03710853,9.627869,5.84E-04,3.05E-04,-3.63E-04,-15.67984,-4.1647797,-64.07429
1412,0.12928134,0.03710853,9.627869,5.84E-04,3.05E-04,-3.63E-04,-14.640259,-5.4351654,-63.008873
1427,0.14723708,0.03710853,9.623079,5.84E-04,3.05E-04,-3.63E-04,-14.640259,-5.4351654,-63.008873
1428,0.14723708,0.03710853,9.623079,-2.67E-05,-3.05E-04,-0.001584431,-14.640259,-5.4351654,-63.008873
1433,0.14723708,0.03710853,9.623079,-2.67E-05,-3.05E-04,-0.001584431,-15.82637,-4.0269012,-63.76525
1444,0.14723708,0.03710853,9.623079,-3.32E-04,-6.11E-04,8.59E-04,-15.82637,-4.0269012,-63.76525
1445,0.13646363,0.03471443,9.654203,-3.32E-04,-6.11E-04,8.59E-04,-15.82637,-4.0269012,-63.76525
1454,0.13646363,0.03471443,9.654203,-3.32E-04,-6.11E-04,8.59E-04,-13.979248,-3.114746,-64.090034
1465,0.13646363,0.03471443,9.654203,-3.32E-04,-0.001221729,-0.002195296,-13.979248,-3.114746,-64.090034
1466,0.13646363,0.03471443,9.654203,-3.32E-04,-0.001221729,-0.002195296,-13.979248,-3.114746,-64.090034
1468,0.10773444,0.045487873,9.656597,-3.32E-04,-0.001221729,-0.002195296,-13.979248,-3.114746,-64.090034
1475,0.10773444,0.045487873,9.656597,-3.32E-04,-0.001221729,-0.002195296,-16.758652,-4.6223373,-64.37168
1485,0.13526659,0.027532134,9.624277,-3.32E-04,-0.001221729,-0.002195296,-16.758652,-4.6223373,-64.37168
1486,0.13526659,0.027532134,9.624277,0.001500437,3.05E-04,5.54E-04,-16.758652,-4.6223373,-64.37168
1495,0.13526659,0.027532134,9.624277,0.001500437,3.05E-04,5.54E-04,-15.823349,-3.5891266,-64.99508
1506,0.14364591,0.044290826,9.620686,-3.32E-04,-0.001527162,2.48E-04,-15.823349,-3.5891266,-64.99508
1512,0.14364591,0.044290826,9.620686,-3.32E-04,-0.001527162,2.48E-04,-16.14328,-4.317993,-64.53118
1526,0.13646364,0.038305577,9.654203,2.79E-04,0.001527161,8.59E-04,-16.14328,-4.317993,-64.53118
1534,0.13646364,0.038305577,9.654203,2.79E-04,0.001527161,8.59E-04,-15.799881,-2.8752136,-64.22602
1546,0.12090199,0.037108533,9.651809,2.79E-04,0.001527161,8.59E-04,-15.799881,-2.8752136,-64.22602
1548,0.12090199,0.037108533,9.651809,0.001195004,-0.001221729,-6.68E-04,-15.799881,-2.8752136,-64.22602
1555,0.12090199,0.037108533,9.651809,0.001195004,-0.001221729,-6.68E-04,-16.726791,-3.181656,-65.13984
1564,0.12090199,0.037108533,9.651809,-3.32E-04,-6.11E-04,-0.001278999,-16.726791,-3.181656,-65.13984
1568,0.12928134,0.033517383,9.644627,-3.32E-04,-6.11E-04,-0.001278999,-16.726791,-3.181656,-65.13984
1575,0.12928134,0.033517383,9.644627,-3.32E-04,-6.11E-04,-0.001278999,-16.729141,-3.4732208,-64.37121
1585,0.14963117,0.04069968,9.633854,8.90E-04,9.16E-04,-0.001889864,-16.729141,-3.4732208,-64.37121
1594,0.14963117,0.04069968,9.633854,8.90E-04,9.16E-04,-0.001889864,-16.589615,-3.6051025,-65.75648
1606,0.12808429,0.044290826,9.633854,8.90E-04,9.16E-04,-0.001889864,-16.589615,-3.6051025,-65.75648
1607,0.12808429,0.044290826,9.633854,8.90E-04,9.16E-04,-0.001584431,-16.589615,-3.6051025,-65.75648
1613,0.12808429,0.044290826,9.633854,8.90E-04,9.16E-04,-0.001584431,-15.337753,-2.5740738,-64.53782
1626,0.11252265,0.032320336,9.630262,8.90E-04,9.16E-04,-0.001584431,-15.337753,-2.5740738,-64.53782
1628,0.11252265,0.032320336,9.630262,0.001500437,0,0.001469892,-15.337753,-2.5740738,-64.53782
1634,0.11252265,0.032320336,9.630262,0.001500437,0,0.001469892,-15.363571,-3.579544,-64.53823
1645,0.106537394,0.04309378,9.645824,0.001500437,0,0.001469892,-15.363571,-3.579544,-64.53823
1647,0.106537394,0.04309378,9.645824,8.90E-04,6.11E-04,-0.001278999,-15.363571,-3.579544,-64.53823
1654,0.106537394,0.04309378,9.645824,8.90E-04,6.11E-04,-0.001278999,-15.322311,-1.853302,-64.99876
1664,0.13167544,0.041896723,9.641035,-2.67E-05,9.16E-04,8.59E-04,-15.322311,-1.853302,-64.99876
1666,0.13167544,0.041896723,9.641035,-2.67E-05,9.16E-04,8.59E-04,-15.322311,-1.853302,-64.99876
1675,0.13167544,0.041896723,9.641035,-2.67E-05,9.16E-04,8.59E-04,-16.70868,-2.7567291,-64.06339
1684,0.14723706,0.027532136,9.632656,-2.67E-05,9.16E-04,8.59E-04,-16.70868,-2.7567291,-64.06339
1686,0.14723706,0.027532136,9.632656,-6.38E-04,0.001832594,5.54E-04,-16.70868,-2.7567291,-64.06339
1696,0.14723706,0.027532136,9.632656,-6.38E-04,0.001832594,5.54E-04,-17.228485,-4.6233673,-66.36602
1705,0.14125183,0.03830558,9.617094,-6.38E-04,0.001832594,5.54E-04,-17.228485,-4.6233673,-66.36602
1707,0.14125183,0.03830558,9.617094,-3.32E-04,0.002443458,5.54E-04,-17.228485,-4.6233673,-66.36602
1714,0.14125183,0.03830558,9.617094,-3.32E-04,0.002443458,5.54E-04,-17.038315,-3.624092,-64.52207
1725,0.106537394,0.033517383,9.6554,2.79E-04,0.002138026,0.002080757,-17.038315,-3.624092,-64.52207
1733,0.106537394,0.033517383,9.6554,2.79E-04,0.002138026,0.002080757,-18.254654,-3.5111542,-64.81776
1746,0.10773444,0.031123284,9.63146,2.79E-04,0.002138026,0.002080757,-18.254654,-3.5111542,-64.81776
1748,0.10773444,0.031123284,9.63146,-0.001248455,3.05E-04,0.00116446,-18.254654,-3.5111542,-64.81776
1755,0.10773444,0.031123284,9.63146,-0.001248455,3.05E-04,0.00116446,-14.451431,-3.8476562,-63.624687
1764,0.15202528,0.027532136,9.64343,-0.002164751,0.001221729,2.48E-04,-14.451431,-3.8476562,-63.624687
1777,0.15202528,0.027532136,9.64343,-0.002164751,0.001221729,2.48E-04,-17.327042,-2.6181717,-66.056206
1784,0.15202525,0.028729185,9.649415,-6.38E-04,3.05E-04,2.48E-04,-17.327042,-2.6181717,-66.056206
1795,0.15202525,0.028729185,9.649415,-6.38E-04,3.05E-04,2.48E-04,-17.202332,-4.2052765,-64.05959
1805,0.122099034,0.027532136,9.651809,-6.38E-04,0.002443458,2.48E-04,-17.202332,-4.2052765,-64.05959
1815,0.122099034,0.027532136,9.651809,-6.38E-04,0.002443458,2.48E-04,-16.438065,-4.1875916,-63.60569
1825,0.113719694,0.031123284,9.653006,-6.38E-04,0.002443458,2.48E-04,-16.438065,-4.1875916,-63.60569
1826,0.113719694,0.031123284,9.653006,5.84E-04,-3.05E-04,-3.63E-04,-16.438065,-4.1875916,-63.60569
1833,0.113719694,0.031123284,9.653006,5.84E-04,-3.05E-04,-3.63E-04,-16.107407,-3.3210678,-62.993263
1845,0.13167544,0.03591148,9.639838,5.84E-04,-3.05E-04,-3.63E-04,-16.107407,-3.3210678,-62.993263
1846,0.13167544,0.03591148,9.639838,5.84E-04,0.001221729,8.59E-04,-16.107407,-3.3210678,-62.993263
1853,0.13167544,0.03591148,9.639838,5.84E-04,0.001221729,8.59E-04,-15.79686,-2.877777,-63.76478
1864,0.15322232,0.035911478,9.632656,-3.32E-04,-6.11E-04,-5.73E-05,-15.79686,-2.877777,-63.76478
1866,0.15322232,0.035911478,9.632656,-3.32E-04,-6.11E-04,-5.73E-05,-15.79686,-2.877777,-63.76478
1875,0.15322232,0.035911478,9.632656,-3.32E-04,-6.11E-04,-5.73E-05,-17.795212,-3.3545074,-64.97584
1885,0.13167544,0.02154689,9.649415,-3.32E-04,-6.11E-04,-5.73E-05,-17.795212,-3.3545074,-64.97584
1887,0.13167544,0.02154689,9.649415,-0.001248455,6.11E-04,-0.002806161,-17.795212,-3.3545074,-64.97584
1895,0.13167544,0.02154689,9.649415,-0.001248455,6.11E-04,-0.002806161,-17.795212,-3.3545074,-64.97584
1903,0.46924335,-1.0210831,9.642233,-0.001248455,6.11E-04,-0.002806161,-17.795212,-3.3545074,-64.97584
1905,0.46924335,-1.0210831,9.642233,-3.32E-04,0.003359756,-0.031211369,-17.795212,-3.3545074,-64.97584
1919,0.46924335,-1.0210831,9.642233,-3.32E-04,0.003359756,-0.031211369,-16.724777,-3.1833725,-64.83233
1926,0.24180397,-0.4249525,9.629065,-0.001553888,0.002138026,-0.09199241,-16.724777,-3.1833725,-64.83233
1934,0.24180397,-0.4249525,9.629065,-0.001553888,0.002138026,-0.09199241,-15.052032,-3.5774307,-63.464928
1943,0.3244004,-0.8702549,9.6697645,-0.001553888,0.002138026,-0.09199241,-15.052032,-3.5774307,-63.464928
1945,0.3244004,-0.8702549,9.6697645,-0.002470184,6.11E-04,-0.08741092,-15.052032,-3.5774307,-63.464928
1957,0.3244004,-0.8702549,9.6697645,-0.002470184,6.11E-04,-0.08741092,-18.598389,-4.806885,-65.73785
1962,-0.050276082,-1.2521136,9.693706,0.001500437,6.11E-04,-0.021132102,-18.598389,-4.806885,-65.73785
1973,-0.050276082,-1.2521136,9.693706,0.001500437,6.11E-04,-0.021132102,-19.41095,-6.5448227,-66.80747
1983,-0.15681347,-0.484805,9.655401,-9.43E-04,-0.002443459,0.06438896,-19.41095,-6.5448227,-66.80747
1993,-0.15681347,-0.484805,9.655401,-9.43E-04,-0.002443459,0.06438896,-23.754105,-8.938507,-69.996025
2009,-0.15681347,-0.484805,9.655401,5.84E-04,3.05E-04,0.015214348,-23.754105,-8.938507,-69.996025
2010,0.31362695,-0.12688723,9.672159,5.84E-04,3.05E-04,0.015214348,-23.754105,-8.938507,-69.996025
2016,0.31362695,-0.12688723,9.672159,5.84E-04,3.05E-04,0.015214348,-25.813828,-11.12439,-73.82157
2023,0.34475023,-0.70266795,9.615898,-0.002775617,0.00794124,-0.050148178,-25.813828,-11.12439,-73.82157
2034,0.34475023,-0.70266795,9.615898,-0.002775617,0.00794124,-0.050148178,-27.400711,-12.871468,-76.88259
2045,0.32559747,-0.4967755,9.660189,0.001805869,-0.004886918,-0.044955827,-27.400711,-12.871468,-76.88259
2055,0.32559747,-0.4967755,9.660189,0.001805869,-0.004886918,-0.044955827,-33.650284,-12.003822,-81.89564
2064,0.18314856,-0.5697955,9.607519,-9.43E-04,-3.05E-04,-0.042206936,-33.650284,-12.003822,-81.89564
2066,0.18314856,-0.5697955,9.607519,-9.43E-04,-3.05E-04,-0.042206936,-33.650284,-12.003822,-81.89564
2075,0.18314856,-0.5697955,9.607519,-9.43E-04,-3.05E-04,-0.042206936,-37.499466,-13.096024,-84.47306
2086,0.31602103,-1.0689651,9.589562,-0.003386481,9.16E-04,-0.021437535,-37.499466,-13.096024,-84.47306
2095,0.31602103,-1.0689651,9.589562,-0.003386481,9.16E-04,-0.021437535,-44.843674,-13.699959,-88.24644
2104,0.10773444,-0.6990769,9.630262,-0.005219076,-0.009468403,0.013076322,-44.843674,-13.699959,-88.24644
2114,0.10773444,-0.6990769,9.630262,-0.005219076,-0.009468403,0.013076322,-51.71434,-13.27858,-93.40754
2123,0.39622334,-0.39382923,9.669765,-0.005219076,-0.009468403,0.013076322,-51.71434,-13.27858,-93.40754
2125,0.39622334,-0.39382923,9.669765,-0.007051669,6.11E-04,-0.017161481,-51.71434,-13.27858,-93.40754
2134,0.39622334,-0.39382923,9.669765,-0.007051669,6.11E-04,-0.017161481,-60.068924,-12.196602,-95.478645
2142,0.41537613,-0.3172181,9.699692,0.003638463,0.011606429,-0.067863256,-60.068924,-12.196602,-95.478645
2152,0.41537613,-0.3172181,9.699692,0.003638463,0.011606429,-0.067863256,-64.8752,-10.327209,-93.27827
2163,0.047881972,-0.96601886,9.653006,0.003638463,0.011606429,-0.067863256,-64.8752,-10.327209,-93.27827
2164,0.047881972,-0.96601886,9.653006,2.79E-04,0.00397062,-0.038847182,-64.8752,-10.327209,-93.27827
2174,0.047881972,-0.96601886,9.653006,2.79E-04,0.00397062,-0.038847182,-67.90611,-10.860512,-89.4053
2186,-0.44171125,-0.71344143,9.594351,-0.007051669,-0.004581486,0.12150482,-67.90611,-10.860512,-89.4053
2195,-0.44171125,-0.71344143,9.594351,-0.007051669,-0.004581486,0.12150482,-69.98802,-14.788872,-89.84907
2202,-0.27292725,-0.57338667,9.641036,0.004860193,0.013744456,0.22229749,-69.98802,-14.788872,-89.84907
2216,-0.27292725,-0.57338667,9.641036,0.004860193,0.013744456,0.22229749,-68.24922,-21.577072,-99.557304
2222,0.13047838,-0.12928134,9.607517,0.004860193,0.013744456,0.22229749,-68.24922,-21.577072,-99.557304
2224,0.13047838,-0.12928134,9.607517,-0.009189697,-0.003054325,0.21557797,-68.24922,-21.577072,-99.557304
2235,0.13047838,-0.12928134,9.607517,-0.009189697,-0.003054325,0.21557797,-68.62373,-20.791733,-113.08407
2244,0.20948365,-0.028729185,9.627869,-0.009189697,-0.003054325,0.21557797,-68.62373,-20.791733,-113.08407
2246,0.20948365,-0.028729185,9.627869,-0.005219076,0.00397062,0.1761772,-68.62373,-20.791733,-113.08407
2252,0.20948365,-0.028729185,9.627869,-0.005219076,0.00397062,0.1761772,-70.583694,-16.897705,-125.363335
2264,0.0921728,-0.083793454,9.620686,8.90E-04,0.01679878,0.15785125,-70.583694,-16.897705,-125.363335
2266,0.0921728,-0.083793454,9.620686,8.90E-04,0.01679878,0.15785125,-70.583694,-16.897705,-125.363335
2275,0.0921728,-0.083793454,9.620686,8.90E-04,0.01679878,0.15785125,-73.73259,-7.6168594,-131.32333
2282,-0.14843412,-0.8918018,9.693706,8.90E-04,0.01679878,0.15785125,-73.73259,-7.6168594,-131.32333
2283,-0.14843412,-0.8918018,9.693706,-2.67E-05,0.006719512,0.1865619,-73.73259,-7.6168594,-131.32333
2295,-0.14843412,-0.8918018,9.693706,-2.67E-05,0.006719512,0.1865619,-70.484634,0.36434174,-131.34943
2303,-0.14604002,-0.69189453,9.64343,-2.67E-05,0.006719512,0.1865619,-70.484634,0.36434174,-131.34943
2305,-0.14604002,-0.69189453,9.64343,-0.009189697,-0.007024944,0.27025038,-70.484634,0.36434174,-131.34943
2315,-0.14604002,-0.69189453,9.64343,-0.009189697,-0.007024944,0.27025038,-63.313797,10.10891,-120.341576
2323,0.33996204,0.28968593,9.639838,-0.009189697,-0.007024944,0.27025038,-63.313797,10.10891,-120.341576
2325,0.33996204,0.28968593,9.639838,-0.009800561,-0.005803214,0.20122266,-63.313797,10.10891,-120.341576
2335,0.33996204,0.28968593,9.639838,-0.009800561,-0.005803214,0.20122266,-49.577835,13.980846,-106.17216
2344,0.23940986,0.11970494,9.66737,8.90E-04,0.003665187,0.05339339,-49.577835,13.980846,-106.17216
2352,0.23940986,0.11970494,9.66737,8.90E-04,0.003665187,0.05339339,-42.03755,13.377304,-91.17698
2364,0.01795574,-0.11970493,9.626671,8.90E-04,0.003665187,0.05339339,-42.03755,13.377304,-91.17698
2366,0.01795574,-0.11970493,9.626671,-0.010105994,-0.00916297,-0.015023453,-42.03755,13.377304,-91.17698
2374,0.01795574,-0.11970493,9.626671,-0.010105994,-0.00916297,-0.015023453,-32.74135,10.974716,-79.73647
2382,-0.4022086,-0.96841294,9.722435,0.005165624,0.00397062,0.061945494,-32.74135,10.974716,-79.73647
2395,-0.4022086,-0.96841294,9.722435,0.005165624,0.00397062,0.061945494,-22.862915,8.464348,-71.83817
2403,-0.2956712,-0.81638765,9.591956,0.005165624,0.00397062,0.061945494,-22.862915,8.464348,-71.83817
2405,-0.2956712,-0.81638765,9.591956,-0.019268963,0.002748891,0.15876755,-22.862915,8.464348,-71.83817
2414,-0.2956712,-0.81638765,9.591956,-0.019268963,0.002748891,0.15876755,-20.633575,4.6083374,-64.94308
2424,0.16160166,-0.23821282,9.66378,-0.017436368,-0.007941242,0.16243273,-20.633575,4.6083374,-64.94308
2432,0.16160166,-0.23821282,9.66378,-0.017436368,-0.007941242,0.16243273,-23.394547,3.8189468,-65.22442
2444,-0.13047838,-0.25616854,9.691311,-0.017436368,-0.007941242,0.16243273,-23.394547,3.8189468,-65.22442
2446,-0.13047838,-0.25616854,9.691311,-0.018352667,-6.11E-04,0.09645936,-23.394547,3.8189468,-65.22442
2452,-0.13047838,-0.25616854,9.691311,-0.018352667,-6.11E-04,0.09645936,-27.375168,7.415169,-59.95568
2465,-0.42614958,-0.29686826,9.609913,-0.01102229,0.003054323,0.10714949,-27.375168,7.415169,-59.95568
2466,-0.42614958,-0.29686826,9.609913,-0.01102229,0.003054323,0.10714949,-27.375168,7.415169,-59.95568
2474,-0.42614958,-0.29686826,9.609913,-0.01102229,0.003054323,0.10714949,-31.922318,5.8085327,-51.14843
2482,0.12329608,-0.4046027,9.6961,-0.01102229,0.003054323,0.10714949,-31.922318,5.8085327,-51.14843
2483,0.12329608,-0.4046027,9.6961,-0.014076615,0.003359756,0.116617896,-31.922318,5.8085327,-51.14843
2495,0.12329608,-0.4046027,9.6961,-0.014076615,0.003359756,0.116617896,-35.357376,-4.055153,-49.122902
2503,0.16160166,-0.62007153,9.648218,-0.002775616,-0.001221729,0.1157016,-35.357376,-4.055153,-49.122902
2514,0.16160166,-0.62007153,9.648218,-0.002775616,-0.001221729,0.1157016,-37.044235,-9.093132,-54.49154
2521,0.047881976,-0.88940763,9.619489,-0.00582994,0.004886917,0.13158408,-37.044235,-9.093132,-54.49154
2533,0.047881976,-0.88940763,9.619489,-0.00582994,0.004886917,0.13158408,-35.95967,-13.056999,-59.117485
2543,-0.31721807,-0.678727,9.5811825,-0.00582994,0.004886917,0.13158408,-35.95967,-13.056999,-59.117485
2545,-0.31721807,-0.678727,9.5811825,-0.010411426,0.016493347,0.1657925,-35.95967,-13.056999,-59.117485
2552,-0.31721807,-0.678727,9.5811825,-0.010411426,0.016493347,0.1657925,-28.91661,-16.29348,-62.878014
2563,-0.05386722,-0.15322232,9.714056,-0.01987983,0.017715076,0.19450314,-28.91661,-16.29348,-62.878014
2574,-0.05386722,-0.15322232,9.714056,-0.01987983,0.017715076,0.19450314,-23.744446,-15.564987,-65.84901
2583,0.59373647,0.67154473,9.670962,-0.01987983,0.017715076,0.19450314,-23.744446,-15.564987,-65.84901
2584,0.59373647,0.67154473,9.670962,-3.32E-04,0.031764966,0.09187787,-23.744446,-15.564987,-65.84901
2594,0.59373647,0.67154473,9.670962,-3.32E-04,0.031764966,0.09187787,-19.584991,-7.1174545,-67.882484
2603,0.35193253,0.2501833,9.587168,-0.008884264,0.014966185,-0.028767912,-19.584991,-7.1174545,-67.882484
2613,0.35193253,0.2501833,9.587168,-0.008884264,0.014966185,-0.028767912,-15.249222,-0.007354736,-61.15423
2623,-0.027532138,-0.5219135,9.694902,-0.008884264,0.014966185,-0.028767912,-15.249222,-0.007354736,-61.15423
2625,-0.027532138,-0.5219135,9.694902,-0.027210204,6.11E-04,0.039343502,-15.249222,-0.007354736,-61.15423
2634,-0.027532138,-0.5219135,9.694902,-0.027210204,6.11E-04,0.039343502,-10.89267,2.2281494,-55.351997
2643,-0.726609,-1.8123326,9.620686,-0.011327723,0.014966185,0.229017,-10.89267,2.2281494,-55.351997
2653,-0.726609,-1.8123326,9.620686,-0.011327723,0.014966185,0.229017,-3.3980255,-0.3914795,-39.435173
2662,-0.83793455,-0.8786342,9.638641,-0.011327723,0.014966185,0.229017,-3.3980255,-0.3914795,-39.435173
2664,-0.83793455,-0.8786342,9.638641,-0.028126502,0.019547671,0.3832603,-3.3980255,-0.3914795,-39.435173
2676,-0.83793455,-0.8786342,9.638641,-0.028126502,0.019547671,0.3832603,6.7410736,-23.885536,-25.710472
2683,0.7385795,1.0294625,9.562031,-0.028126502,0.019547671,0.3832603,6.7410736,-23.885536,-25.710472
2684,0.7385795,1.0294625,9.562031,-0.025988476,0.008857538,0.25406244,6.7410736,-23.885536,-25.710472
2693,0.7385795,1.0294625,9.562031,-0.025988476,0.008857538,0.25406244,6.7410736,-23.885536,-25.710472
2705,0.32320336,0.5709926,9.703282,-0.007051669,-0.002138027,0.06774872,6.7410736,-23.885536,-25.710472
2714,0.32320336,0.5709926,9.703282,-0.007051669,-0.002138027,0.06774872,8.681,-41.012215,-33.889946
2722,-0.15082823,-0.014364595,9.558439,-0.007051669,-0.002138027,0.06774872,8.681,-41.012215,-33.889946
2724,-0.15082823,-0.014364595,9.558439,-0.001859319,-0.00763581,0.09615393,8.681,-41.012215,-33.889946
2733,-0.15082823,-0.014364595,9.558439,-0.001859319,-0.00763581,0.09615393,11.044601,-46.770195,-45.141136
2741,0.21906005,0.64999783,9.589562,-0.014076615,-0.005803215,0.13616556,11.044601,-46.770195,-45.141136
2753,0.21906005,0.64999783,9.589562,-0.014076615,-0.005803215,0.13616556,18.854004,-52.792778,-60.135445
2762,0.7804762,1.2497195,9.644627,-0.014076615,-0.005803215,0.13616556,18.854004,-52.792778,-60.135445
2764,0.7804762,1.2497195,9.644627,-0.0186581,-0.002138027,0.0845475,18.854004,-52.792778,-60.135445
2773,0.7804762,1.2497195,9.644627,-0.0186581,-0.002138027,0.0845475,30.282959,-48.534637,-73.92783
2783,0.9133487,0.4752286,9.547667,-0.017130937,-0.02199113,-0.10695859,30.282959,-48.534637,-73.92783
2794,0.9133487,0.4752286,9.547667,-0.017130937,-0.02199113,-0.10695859,42.947754,-32.343773,-85.264046
2804,0.09576395,0.028729185,9.685327,-0.01621464,0.004276053,-0.060227443,42.947754,-32.343773,-85.264046
2815,0.09576395,0.028729185,9.685327,-0.01621464,0.004276053,-0.060227443,44.50296,-12.182739,-89.41718
2822,-0.11371969,0.18673971,9.739194,-0.027210208,0.001832594,0.06927588,44.50296,-12.182739,-89.41718
2835,-0.11371969,0.18673971,9.739194,-0.027210208,0.001832594,0.06927588,26.101227,-1.0682755,-85.23402
2841,0.4393171,0.70625913,9.770317,-0.026599342,-3.05E-04,0.1318895,26.101227,-1.0682755,-85.23402
2853,0.4393171,0.70625913,9.770317,-0.026599342,-3.05E-04,0.1318895,2.4417877,-2.8186493,-89.772896
2862,0.29208004,0.5111401,9.620686,-0.026599342,-3.05E-04,0.1318895,2.4417877,-2.8186493,-89.772896
2864,0.29208004,0.5111401,9.620686,-0.036678605,0.017104212,0.14685568,2.4417877,-2.8186493,-89.772896
2873,0.29208004,0.5111401,9.620686,-0.036678605,0.017104212,0.14685568,-19.819122,-1.033905,-103.54856
2882,0.24300101,0.5985247,9.494995,-0.036678605,0.017104212,0.14685568,-19.819122,-1.033905,-103.54856
2884,0.24300101,0.5985247,9.494995,-0.05530998,0.065973386,0.1071495,-19.819122,-1.033905,-103.54856
2895,0.24300101,0.5985247,9.494995,-0.05530998,0.065973386,0.1071495,-41.35936,9.638756,-111.94367
2904,-0.02992623,0.38664693,9.631458,-0.061113194,0.06811142,0.048201043,-41.35936,9.638756,-111.94367
2914,-0.02992623,0.38664693,9.631458,-0.061113194,0.06811142,0.048201043,-60.585007,24.175411,-107.596504
2921,-0.3579178,0.16160166,9.715252,-0.08402062,0.009773836,0.104706034,-60.585007,24.175411,-107.596504
2934,-0.3579178,0.16160166,9.715252,-0.08402062,0.009773836,0.104706034,-75.94151,32.14154,-90.99029
2942,0.08618756,0.3722824,9.50577,-0.08402062,0.009773836,0.104706034,-75.94151,32.14154,-90.99029
2943,0.08618756,0.3722824,9.50577,-0.058975168,-0.023823723,0.15937841,-75.94151,32.14154,-90.99029
2955,0.08618756,0.3722824,9.50577,-0.058975168,-0.023823723,0.15937841,-87.89717,33.228065,-85.49232
2960,0.22145413,0.38066173,9.736799,-0.058975168,-0.023823723,0.15937841,-87.89717,33.228065,-85.49232
2962,0.22145413,0.38066173,9.736799,-0.009189697,0.04673115,0.12058852,-87.89717,33.228065,-85.49232
2974,0.22145413,0.38066173,9.736799,-0.009189697,0.04673115,0.12058852,-91.19853,35.899986,-66.0848
2981,0.28489774,0.6655595,8.690578,-0.009189697,0.04673115,0.12058852,-91.19853,35.899986,-66.0848
2982,0.28489774,0.6655595,8.690578,-0.030569961,0.080023274,0.14716113,-91.19853,35.899986,-66.0848
2994,0.28489774,0.6655595,8.690578,-0.030569961,0.080023274,0.14716113,-99.065445,25.799377,-43.258904
3002,0.3363709,0.5913424,9.979801,-0.05866974,-0.09071341,0.071413904,-99.065445,25.799377,-43.258904
3014,0.3363709,0.5913424,9.979801,-0.05866974,-0.09071341,0.071413904,-106.32161,8.935219,-39.663475
3022,-0.13047838,0.050276086,9.6937065,-0.02629391,-0.029321507,0.22138119,-106.32161,8.935219,-39.663475
3034,-0.13047838,0.050276086,9.6937065,-0.02629391,-0.029321507,0.22138119,-108.780106,-6.8554077,-50.874702
3040,-0.32080925,-0.20708954,9.732012,-0.02629391,-0.029321507,0.22138119,-108.780106,-6.8554077,-50.874702
3042,-0.32080925,-0.20708954,9.732012,-0.022628719,0.012828158,0.34019437,-108.780106,-6.8554077,-50.874702
3053,-0.32080925,-0.20708954,9.732012,-0.022628719,0.012828158,0.34019437,-105.78664,-9.826134,-69.664406
3062,-0.19272494,0.7146385,9.545271,-0.023239585,0.006719512,0.40311342,-105.78664,-9.826134,-69.664406
3063,-0.19272494,0.7146385,9.545271,-0.023239585,0.006719512,0.40311342,-105.78664,-9.826134,-69.664406
3072,-0.19272494,0.7146385,9.545271,-0.023239585,0.006719512,0.40311342,-99.29274,-2.1080933,-83.86802
3082,0.9145457,2.2708025,9.617095,-0.023239585,0.006719512,0.40311342,-99.29274,-2.1080933,-83.86802
3083,0.9145457,2.2708025,9.617095,-0.020490693,-0.003359756,0.24276146,-99.29274,-2.1080933,-83.86802
3094,0.9145457,2.2708025,9.617095,-0.020490693,-0.003359756,0.24276146,-89.127426,8.787933,-84.57412
3101,0.60450995,2.3138967,9.617094,-0.015603775,-0.010384701,0.10104085,-89.127426,8.787933,-84.57412
3113,0.60450995,2.3138967,9.617094,-0.015603775,-0.010384701,0.10104085,-82.39885,21.003273,-80.940834
3122,0.92891026,3.5001724,9.7020855,-0.003081049,-0.007941242,-0.01563432,-82.39885,21.003273,-80.940834
3133,0.92891026,3.5001724,9.7020855,-0.003081049,-0.007941242,-0.01563432,-74.58278,27.49088,-74.70794
3142,0.28848884,1.9871019,9.569214,0.001805869,-0.006719513,-0.07824795,-74.58278,27.49088,-74.70794
3152,0.28848884,1.9871019,9.569214,0.001805869,-0.006719513,-0.07824795,-76.49864,29.58599,-73.457924
3162,0.33397678,0.31482401,9.59076,-0.003386481,0.002138026,-0.016550617,-76.49864,29.58599,-73.457924
3175,0.33397678,0.31482401,9.59076,-0.003386481,0.002138026,-0.016550617,-76.19685,29.449596,-73.30718
3182,0.43812007,2.452754,9.664976,-0.003386481,0.002138026,-0.016550617,-76.19685,29.449596,-73.30718
3183,0.43812007,2.452754,9.664976,0.003943896,-0.001221729,-0.20194808,-76.19685,29.449596,-73.30718
3194,0.43812007,2.452754,9.664976,0.003943896,-0.001221729,-0.20194808,-76.097855,28.618317,-78.075264
3202,0.19751313,0.7397765,9.721238,0.003943896,-0.001221729,-0.20194808,-76.097855,28.618317,-78.075264
3203,0.19751313,0.7397765,9.721238,0.00577649,0.002443458,-0.2239392,-76.097855,28.618317,-78.075264
3214,0.19751313,0.7397765,9.721238,0.00577649,0.002443458,-0.2239392,-81.46925,21.45422,-80.18073
3222,-0.010773443,0.9001812,9.732012,0.00577649,0.002443458,-0.2239392,-81.46925,21.45422,-80.18073
3223,-0.010773443,0.9001812,9.732012,0.009441678,0.003665188,-0.15552235,-81.46925,21.45422,-80.18073
3234,-0.010773443,0.9001812,9.732012,0.009441678,0.003665188,-0.15552235,-86.49187,16.021912,-82.2884
3243,0.19751313,1.1910641,9.732012,0.014328595,-6.11E-04,-0.12986602,-86.49187,16.021912,-82.2884
3254,0.19751313,1.1910641,9.732012,0.014328595,-6.11E-04,-0.12986602,-91.2328,9.589653,-83.938194
3261,0.2765184,1.4280798,9.674553,0.014328595,-6.11E-04,-0.12986602,-91.2328,9.589653,-83.938194
3262,0.2765184,1.4280798,9.674553,0.014939461,0.001221729,-0.1313932,-91.2328,9.589653,-83.938194
3265,0.2765184,1.4280798,9.674553,0.014939461,0.001221729,-0.1313932,-91.2328,9.589653,-83.938194
3273,0.2765184,1.4280798,9.674553,0.014939461,0.001221729,-0.1313932,-97.944565,3.391182,-85.415
3282,0.3543266,1.7405097,9.660189,0.00974711,-0.014355322,-0.18942535,-97.944565,3.391182,-85.415
3294,0.3543266,1.7405097,9.660189,0.00974711,-0.014355322,-0.18942535,-105.103775,-5.1758347,-76.43337
3302,0.19033083,0.92891026,9.745179,0.019826379,-0.003970621,-0.254177,-105.103775,-5.1758347,-76.43337
3314,0.19033083,0.92891026,9.745179,0.019826379,-0.003970621,-0.254177,-110.19823,-5.6769104,-62.699745
3322,-0.6727418,-0.01556164,9.945086,0.029905645,0.019547671,-0.08985438,-110.19823,-5.6769104,-62.699745
3335,-0.6727418,-0.01556164,9.945086,0.029905645,0.019547671,-0.08985438,-109.94469,1.5931549,-52.70295
3340,-0.10294625,0.5913424,9.814608,0.029905645,0.019547671,-0.08985438,-109.94469,1.5931549,-52.70295
3341,-0.10294625,0.5913424,9.814608,0.038152322,0.06750055,0.025904482,-109.94469,1.5931549,-52.70295
3354,-0.10294625,0.5913424,9.814608,0.038152322,0.06750055,0.025904482,-105.47203,15.632164,-52.121803
3361,0.2106807,0.9528513,8.534963,0.03601429,-0.016493347,0.01796324,-105.47203,15.632164,-52.121803
3375,0.2106807,0.9528513,8.534963,0.03601429,-0.016493347,0.01796324,-93.79387,29.512459,-65.60267
3380,-0.25377446,0.72541195,9.845731,0.03601429,-0.016493347,0.01796324,-93.79387,29.512459,-65.60267
3381,-0.25377446,0.72541195,9.845731,0.028073052,-0.092851445,0.024988184,-93.79387,29.512459,-65.60267
3394,-0.25377446,0.72541195,9.845731,0.028073052,-0.092851445,0.024988184,-78.22826,32.08336,-91.4295
3401,0.3615089,1.0031273,9.443522,0.03173824,0.026572615,-0.004944187,-78.22826,32.08336,-91.4295
3414,0.3615089,1.0031273,9.443522,0.03173824,0.026572615,-0.004944187,-62.232285,19.397366,-108.04502
3423,0.36749417,1.262887,10.106688,0.07755309,0.093156874,-0.014718022,-62.232285,19.397366,-108.04502
3434,0.36749417,1.262887,10.106688,0.07755309,0.093156874,-0.014718022,-37.883774,7.9928284,-109.2107
3440,0.36749417,1.262887,10.106688,0.07144445,-0.062002767,-0.0428178,-37.883774,7.9928284,-109.2107
3441,0.29208004,0.8558903,9.437537,0.07144445,-0.062002767,-0.0428178,-37.883774,7.9928284,-109.2107
3455,0.29208004,0.8558903,9.437537,0.07144445,-0.062002767,-0.0428178,-12.604736,-5.163231,-101.007164
3461,0.032320336,1.0761474,8.873727,0.07144445,-0.062002767,-0.0428178,-12.604736,-5.163231,-101.007164
3463,0.032320336,1.0761474,8.873727,0.061670616,-0.13744456,-0.052591637,-12.604736,-5.163231,-101.007164
3472,0.032320336,1.0761474,8.873727,0.061670616,-0.13744456,-0.052591637,-6.3996277,-13.47879,-74.01093
3481,0.32679448,1.2281728,10.051624,0.061670616,-0.13744456,-0.052591637,-6.3996277,-13.47879,-74.01093
3482,0.32679448,1.2281728,10.051624,0.06014345,0.003054323,-0.11489984,-6.3996277,-13.47879,-74.01093
3493,0.32679448,1.2281728,10.051624,0.06014345,0.003054323,-0.11489984,-6.3996277,-13.47879,-74.01093
3501,0.6081011,1.3658333,9.313044,0.030821944,-0.003970621,-0.21660882,-6.3996277,-13.47879,-74.01093
3514,0.6081011,1.3658333,9.313044,0.030821944,-0.003970621,-0.21660882,-8.164429,-17.102997,-50.932228
3523,0.23103052,0.54705155,9.844535,0.015855758,0.026267182,-0.26028565,-8.164429,-17.102997,-50.932228
3534,0.23103052,0.54705155,9.844535,0.015855758,0.026267182,-0.26028565,-1.9407043,-15.293411,-37.306557
3539,0.23103052,0.54705155,9.844535,0.012190569,0.017104212,-0.14819197,-1.9407043,-15.293411,-37.306557
3540,-0.48719913,-0.08618756,9.617094,0.012190569,0.017104212,-0.14819197,-1.9407043,-15.293411,-37.306557
3556,-0.48719913,-0.08618756,9.617094,0.012190569,0.017104212,-0.14819197,3.2203827,-14.995827,-40.277733
3560,-0.42016435,0.5674014,9.625474,0.012190569,0.017104212,-0.14819197,3.2203827,-14.995827,-40.277733
3562,-0.42016435,0.5674014,9.625474,0.021658972,0.01557705,-0.031516805,3.2203827,-14.995827,-40.277733
3574,-0.42016435,0.5674014,9.625474,0.021658972,0.01557705,-0.031516805,7.719406,-28.34616,-44.327904
3579,0.40819386,1.2138081,9.758347,0.021658972,0.01557705,-0.031516805,7.719406,-28.34616,-44.327904
3580,0.40819386,1.2138081,9.758347,0.028683918,-0.006108647,-0.08252401,7.719406,-28.34616,-44.327904
3593,0.40819386,1.2138081,9.758347,0.028683918,-0.006108647,-0.08252401,12.424194,-39.08275,-27.62069
3601,1.2090199,0.7373824,9.61111,0.026851323,-0.001221729,-0.32015038,12.424194,-39.08275,-27.62069
3614,1.2090199,0.7373824,9.61111,0.026851323,-0.001221729,-0.32015038,9.332016,-38.069756,6.6984406
3623,0.20469543,0.19751313,9.593154,0.020131811,-0.010079268,-0.36230004,9.332016,-38.069756,6.6984406
3634,0.20469543,0.19751313,9.593154,0.020131811,-0.010079268,-0.36230004,1.3153992,-23.90519,27.696823
3639,-0.6368303,-0.08858166,9.642233,0.020131811,-0.010079268,-0.36230004,1.3153992,-23.90519,27.696823
3640,-0.6368303,-0.08858166,9.642233,0.00577649,-0.005497783,-0.21691425,1.3153992,-23.90519,27.696823
3653,-0.6368303,-0.08858166,9.642233,0.00577649,-0.005497783,-0.21691425,-9.721344,-6.6136703,40.11592
3659,-0.06104952,0.40699676,9.692509,0.00577649,-0.005497783,-0.21691425,-9.721344,-6.6136703,40.11592
3660,-0.06104952,0.40699676,9.692509,0.012496002,-0.023823727,-0.1588821,-9.721344,-6.6136703,40.11592
3665,-0.06104952,0.40699676,9.692509,0.012496002,-0.023823727,-0.1588821,-9.721344,-6.6136703,40.11592
3675,-0.06104952,0.40699676,9.692509,0.012496002,-0.023823727,-0.1588821,-8.175507,13.702118,33.964096
3680,0.90496933,0.38664696,9.589562,0.012496002,-0.023823727,-0.1588821,-8.175507,13.702118,33.964096
3681,0.90496933,0.38664696,9.589562,0.005165625,0.003054323,-0.27433553,-8.175507,13.702118,33.964096
3696,0.90496933,0.38664696,9.589562,0.005165625,0.003054323,-0.27433553,-11.356262,11.53492,21.692596
3699,0.628451,0.24060692,9.686523,0.005165625,0.003054323,-0.27433553,-11.356262,11.53492,21.692596
3700,0.628451,0.24060692,9.686523,0.028378485,-0.024740022,-0.36718696,-11.356262,11.53492,21.692596
3714,0.628451,0.24060692,9.686523,0.028378485,-0.024740022,-0.36718696,-22.491379,-1.0988312,20.561798
3720,0.16878396,-0.41657317,9.603927,0.028378485,-0.024740022,-0.36718696,-22.491379,-1.0988312,20.561798
3721,0.16878396,-0.41657317,9.603927,0.009441678,-0.01557705,-0.4068932,-22.491379,-1.0988312,20.561798
3734,0.16878396,-0.41657317,9.603927,0.009441678,-0.01557705,-0.4068932,-37.12523,-4.2612534,28.696785
3740,-0.7649146,-1.5190556,9.536892,-0.008273399,-0.014355321,-0.23676735,-37.12523,-4.2612534,28.696785
3753,-0.7649146,-1.5190556,9.536892,-0.008273399,-0.014355321,-0.23676735,-43.412704,-3.9485016,20.147232
3759,-0.55183977,-0.86187553,9.715252,-0.008273399,-0.014355321,-0.23676735,-43.412704,-3.9485016,20.147232
3760,-0.55183977,-0.86187553,9.715252,0.020437242,0.00519235,-0.06603066,-43.412704,-3.9485016,20.147232
3774,-0.55183977,-0.86187553,9.715252,0.020437242,0.00519235,-0.06603066,-49.999435,-11.881157,21.281982
3780,0.45487878,0.3124299,9.723632,0.020437242,0.00519235,-0.06603066,-49.999435,-11.881157,21.281982
3781,0.45487878,0.3124299,9.723632,0.007609084,0.014660753,-0.096879326,-49.999435,-11.881157,21.281982
3793,0.45487878,0.3124299,9.723632,0.007609084,0.014660753,-0.096879326,-56.410416,-9.969101,33.646095
3801,0.90496933,0.48121387,9.676947,0.009136246,-0.004886919,-0.26883775,-56.410416,-9.969101,33.646095
3813,0.90496933,0.48121387,9.676947,0.009136246,-0.004886919,-0.26883775,-56.9532,0.8332443,24.74044
3820,0.15082821,-0.19990726,9.763135,0.014939461,0.017104212,-0.2917452,-56.9532,0.8332443,24.74044
3834,0.15082821,-0.19990726,9.763135,0.014939461,0.017104212,-0.2917452,-51.618332,-1.3918762,11.925255
3840,-0.38425285,-0.46206105,9.656597,0.020437242,0.002138026,-0.14299962,-51.618332,-1.3918762,11.925255
3853,-0.38425285,-0.46206105,9.656597,0.020437242,0.002138026,-0.14299962,-42.545395,-7.567581,4.452881
3859,0.81040245,0.6619683,9.644627,0.020437242,0.002138026,-0.14299962,-42.545395,-7.567581,4.452881
3861,0.81040245,0.6619683,9.644627,0.015550325,-0.015271617,-0.14452678,-42.545395,-7.567581,4.452881
3864,0.81040245,0.6619683,9.644627,0.015550325,-0.015271617,-0.14452678,-42.545395,-7.567581,4.452881
3872,0.81040245,0.6619683,9.644627,0.015550325,-0.015271617,-0.14452678,-22.471558,-13.33799,2.2559814
3880,1.2760546,0.0143646,9.694902,0.015550325,-0.011911863,-0.37757167,-22.471558,-13.33799,2.2559814
3895,1.2760546,0.0143646,9.694902,0.015550325,-0.011911863,-0.37757167,3.926651,-16.66375,3.5360184
3900,0.1065374,-0.21427184,9.717648,0.02654589,-0.024434589,-0.40383887,3.926651,-16.66375,3.5360184
3914,0.1065374,-0.21427184,9.717648,0.02654589,-0.024434589,-0.40383887,24.472168,-3.3137817,-1.5741501
3920,-0.44051418,-1.4759619,9.681735,0.011579705,-0.015271619,-0.26914316,24.472168,-3.3137817,-1.5741501
3934,-0.44051418,-1.4759619,9.681735,0.011579705,-0.015271619,-0.26914316,27.336533,0.016448975,-18.359505
3938,0.03950262,-0.6942886,9.617094,0.022880701,-0.009468405,-0.15277345,27.336533,0.016448975,-18.359505
3955,0.03950262,-0.6942886,9.617094,0.022880701,-0.009468405,-0.15277345,13.417465,-0.73770905,-26.374672
3959,0.21906003,-0.3998145,9.723633,0.020437242,-0.00763581,-0.22455007,13.417465,-0.73770905,-26.374672
3974,0.21906003,-0.3998145,9.723633,0.020437242,-0.00763581,-0.22455007,4.0557404,-3.5634384,-27.516075
3979,0.21906003,-0.3998145,9.723633,-0.002164752,-0.018325942,-0.2673106,4.0557404,-3.5634384,-27.516075
3981,0.25497153,-0.5219135,9.591957,-0.002164752,-0.018325942,-0.2673106,4.0557404,-3.5634384,-27.516075
3993,0.25497153,-0.5219135,9.591957,-0.002164752,-0.018325942,-0.2673106,-1.4581146,-4.70874,-28.539833
3998,-0.28729185,-1.1431822,9.630262,-0.002164752,-0.018325942,-0.2673106,-1.4581146,-4.70874,-28.539833
3999,-0.28729185,-1.1431822,9.630262,0.016466621,-0.033597562,-0.2004209,-1.4581146,-4.70874,-28.539833
4014,-0.28729185,-1.1431822,9.630262,0.016466621,-0.033597562,-0.2004209,-6.5055695,-7.4646683,-21.881157
4020,-0.28848886,-1.043827,9.773909,0.016466621,-0.033597562,-0.2004209,-6.5055695,-7.4646683,-21.881157
4021,-0.28848886,-1.043827,9.773909,0.017993784,0.013439024,-0.12467367,-6.5055695,-7.4646683,-21.881157
4034,-0.28848886,-1.043827,9.773909,0.017993784,0.013439024,-0.12467367,-9.114395,-11.772614,-8.635414
4039,0.37347943,-0.37826762,9.704479,0.017993784,0.013439024,-0.12467367,-9.114395,-11.772614,-8.635414
4040,0.37347943,-0.37826762,9.704479,0.010052543,0.010995565,-0.16590704,-9.114395,-11.772614,-8.635414
4056,0.37347943,-0.37826762,9.704479,0.010052543,0.010995565,-0.16590704,-13.648727,-7.3589706,1.7133408
4059,0.78406733,0.32679448,9.770317,0.00974711,-0.012522727,-0.2966321,-13.648727,-7.3589706,1.7133408
4063,0.78406733,0.32679448,9.770317,0.00974711,-0.012522727,-0.2966321,-13.648727,-7.3589706,1.7133408
4073,0.78406733,0.32679448,9.770317,0.00974711,-0.012522727,-0.2966321,-14.795593,0.34062958,5.419815
4080,0.5314899,-0.60570693,9.7427845,0.00974711,-0.012522727,-0.2966321,-14.795593,0.34062958,5.419815
4081,0.5314899,-0.60570693,9.7427845,0.031432807,0.005497782,-0.3589403,-14.795593,0.34062958,5.419815
4096,0.5314899,-0.60570693,9.7427845,0.031432807,0.005497782,-0.3589403,-18.574982,7.128334,5.7684097
4100,-0.4704404,-1.7728301,9.6374445,0.031432807,0.005497782,-0.3589403,-18.574982,7.128334,5.7684097
4101,-0.4704404,-1.7728301,9.6374445,-0.005219076,-0.015271619,-0.21599795,-18.574982,7.128334,5.7684097
4114,-0.4704404,-1.7728301,9.6374445,-0.005219076,-0.015271619,-0.21599795,-25.100845,14.728928,1.8388367
4120,-0.33756793,-1.4268829,9.605124,-0.005219076,-0.015271619,-0.21599795,-25.100845,14.728928,1.8388367
4121,-0.33756793,-1.4268829,9.605124,-0.007357102,-0.007024946,-0.07091757,-25.100845,14.728928,1.8388367
4134,-0.33756793,-1.4268829,9.605124,-0.007357102,-0.007024946,-0.07091757,-26.147385,18.206928,-8.758186
4141,0.4213614,-0.82716113,9.591956,0.01738292,0.001527161,-0.07244474,-26.147385,18.206928,-8.758186
4158,0.9983392,0.16638987,9.650613,0.011579705,0.003665188,-0.1909525,-26.419998,15.076145,-14.754295
4173,0.9983392,0.16638987,9.650613,0.011579705,0.003665188,-0.1909525,-29.533432,12.851662,-16.72454
4179,0.9564424,-0.6236627,9.650612,0.011579705,0.003665188,-0.1909525,-29.533432,12.851662,-16.72454
4181,0.9564424,-0.6236627,9.650612,0.010357975,-0.007024946,-0.29235604,-29.533432,12.851662,-16.72454
4195,0.9564424,-0.6236627,9.650612,0.010357975,-0.007024946,-0.29235604,-36.560745,11.21785,-14.658775
4198,0.2250453,-0.9576395,9.625474,0.008525381,-0.00763581,-0.26395082,-36.560745,11.21785,-14.658775
4214,0.2250453,-0.9576395,9.625474,0.008525381,-0.00763581,-0.26395082,-44.205826,8.988152,-11.664848
4220,0.2693361,-0.9384867,9.613503,0.004860193,3.05E-04,-0.19034164,-44.205826,8.988152,-11.664848
4234,0.2693361,-0.9384867,9.613503,0.004860193,3.05E-04,-0.19034164,-51.954483,9.208237,-10.820961
4241,0.51592827,-0.51592827,9.708071,0.009136246,0.005803214,-0.16040927,-51.954483,9.208237,-10.820961
4254,0.51592827,-0.51592827,9.708071,0.009136246,0.005803214,-0.16040927,-59.99788,9.999062,-10.742622
4258,1.2497195,-0.49797255,9.784681,0.016466621,0.008552106,-0.22088486,-59.99788,9.999062,-10.742622
4265,1.2497195,-0.49797255,9.784681,0.016466621,0.008552106,-0.22088486,-59.99788,9.999062,-10.742622
4273,1.2497195,-0.49797255,9.784681,0.016466621,0.008552106,-0.22088486,-64.282364,9.170029,-11.163033
4279,1.0450242,-0.2034984,9.635051,0.016466621,0.008552106,-0.22088486,-64.282364,9.170029,-11.163033
4280,1.0450242,-0.2034984,9.635051,0.003638463,-3.05E-04,-0.2636454,-64.282364,9.170029,-11.163033
4294,1.0450242,-0.2034984,9.635051,0.003638463,-3.05E-04,-0.2636454,-64.282364,9.170029,-11.163033
4299,0.9049693,-0.42016435,9.690115,0.002722167,-0.005192351,-0.31526348,-64.282364,9.170029,-11.163033
4314,0.9049693,-0.42016435,9.690115,0.002722167,-0.005192351,-0.31526348,-66.74959,7.3704376,-9.141457
4319,0.8858166,-0.44410533,9.609913,0.002722167,-0.005192351,-0.31526348,-66.74959,7.3704376,-9.141457
4320,0.8858166,-0.44410533,9.609913,0.013717731,-0.002138027,-0.3412252,-66.74959,7.3704376,-9.141457
4334,0.8858166,-0.44410533,9.609913,0.013717731,-0.002138027,-0.3412252,-63.522842,7.723961,-5.7897263
4338,1.1898671,-0.24180397,9.650612,0.013717731,-0.002138027,-0.3412252,-63.522842,7.723961,-5.7897263
4339,1.1898671,-0.24180397,9.650612,0.001805868,-0.003665188,-0.36016202,-63.522842,7.723961,-5.7897263
4354,1.1898671,-0.24180397,9.650612,0.001805868,-0.003665188,-0.36016202,-42.89427,11.582977,-7.5242996
4358,1.0797386,-0.47762272,9.649415,0.00455476,0.007635809,-0.41330725,-42.89427,11.582977,-7.5242996
4375,1.0797386,-0.47762272,9.649415,0.00455476,0.007635809,-0.41330725,-22.143127,23.410599,-21.555565
4379,1.1431822,-0.49557844,9.494995,0.00455476,0.007635809,-0.41330725,-22.143127,23.410599,-21.555565
4380,1.1431822,-0.49557844,9.494995,-0.004608211,-0.001527162,-0.3974248,-22.143127,23.410599,-21.555565
4392,1.1431822,-0.49557844,9.494995,-0.004608211,-0.001527162,-0.3974248,-22.468506,35.469337,-48.298668
4399,0.751747,-0.44051415,9.6147,-0.002470184,0.002443458,-0.39498132,-22.468506,35.469337,-48.298668
4414,0.751747,-0.44051415,9.6147,-0.002470184,0.002443458,-0.39498132,-40.96437,41.953747,-63.183937
4419,1.0737534,-0.007182296,9.521331,-0.002470184,0.002443458,-0.39498132,-40.96437,41.953747,-63.183937
4420,1.0737534,-0.007182296,9.521331,-0.001859319,-0.002748892,-0.39711934,-40.96437,41.953747,-63.183937
4434,1.0737534,-0.007182296,9.521331,-0.001859319,-0.002748892,-0.39711934,-50.12584,46.003075,-60.786217
4439,1.2820399,0.0071823,9.658991,-0.004302778,0.009468403,-0.49607944,-50.12584,46.003075,-60.786217
4454,1.2820399,0.0071823,9.658991,-0.004302778,0.009468403,-0.49607944,-56.88948,55.15337,-60.7147
4458,1.6088344,-0.117310844,9.697297,0.007609084,-0.01282816,-0.44904286,-56.88948,55.15337,-60.7147
4465,1.6088344,-0.117310844,9.697297,0.007609084,-0.01282816,-0.44904286,-56.88948,55.15337,-60.7147
4473,1.6088344,-0.117310844,9.697297,0.007609084,-0.01282816,-0.44904286,-82.10066,54.86839,-52.629265
4479,1.6088344,-0.117310844,9.697297,0.001195004,0.00519235,-0.44293422,-82.10066,54.86839,-52.629265
4480,0.61887455,-0.12808429,9.685327,0.001195004,0.00519235,-0.44293422,-82.10066,54.86839,-52.629265
4497,0.61887455,-0.12808429,9.685327,0.001195004,0.00519235,-0.44293422,-106.61989,46.589737,-24.105705
4499,1.3047838,0.33277974,9.6554,-2.67E-05,0.02596175,-0.46431446,-106.61989,46.589737,-24.105705
4512,1.3047838,0.33277974,9.6554,-2.67E-05,0.02596175,-0.46431446,-111.31731,42.775715,-6.5341415
4519,1.5585583,0.5410663,9.726027,-2.67E-05,0.02596175,-0.46431446,-111.31731,42.775715,-6.5341415
4520,1.5585583,0.5410663,9.726027,0.010052543,-0.01282816,-0.49943918,-111.31731,42.775715,-6.5341415
4534,1.5585583,0.5410663,9.726027,0.010052543,-0.01282816,-0.49943918,-113.20329,37.18649,-16.821571
4538,2.0649102,0.4919873,9.591956,0.010052543,-0.01282816,-0.49943918,-113.20329,37.18649,-16.821571
4539,2.0649102,0.4919873,9.591956,0.006081922,-0.02351829,-0.6646781,-113.20329,37.18649,-16.821571
4555,2.0649102,0.4919873,9.591956,0.006081922,-0.02351829,-0.6646781,-127.592606,34.203575,-63.888756
4558,0.52311057,-0.6523919,9.510557,0.008219948,-0.031764966,-0.65398794,-127.592606,34.203575,-63.888756
4575,0.52311057,-0.6523919,9.510557,0.008219948,-0.031764966,-0.65398794,-176.45393,17.709908,-117.24323
4579,0.4249525,-0.21427184,9.535696,0.008219948,-0.031764966,-0.65398794,-176.45393,17.709908,-117.24323
4580,0.4249525,-0.21427184,9.535696,0.003027598,-0.03268126,-0.57213205,-176.45393,17.709908,-117.24323
4592,0.4249525,-0.21427184,9.535696,0.003027598,-0.03268126,-0.57213205,-201.26085,-7.109627,-159.30386
4599,1.4101241,0.40460268,9.485418,0.003027598,-0.03268126,-0.57213205,-201.26085,-7.109627,-159.30386
4600,1.4101241,0.40460268,9.485418,0.016466621,-0.011606429,-0.6118383,-201.26085,-7.109627,-159.30386
4615,1.4101241,0.40460268,9.485418,0.016466621,-0.011606429,-0.6118383,-181.31844,-28.099281,-236.54468
4619,1.1790936,0.17357215,9.759543,0.003027598,0.002138027,-0.6784225,-181.31844,-28.099281,-236.54468
4634,1.1790936,0.17357215,9.759543,0.003027598,0.002138027,-0.6784225,-156.18416,-54.90145,-402.55923
4637,0.8511021,-0.42614955,9.64343,5.84E-04,0.006414079,-0.62191755,-156.18416,-54.90145,-402.55923
4655,0.8511021,-0.42614955,9.64343,5.84E-04,0.006414079,-0.62191755,-150.60219,-97.95199,-654.1938
4658,0.21666594,-0.47163746,9.578789,5.84E-04,0.006414079,-0.62191755,-150.60219,-97.95199,-654.1938
4659,0.21666594,-0.47163746,9.578789,0.01096884,-0.001221729,-0.5724375,-150.60219,-97.95199,-654.1938
4664,0.21666594,-0.47163746,9.578789,0.01096884,-0.001221729,-0.5724375,-150.60219,-97.95199,-654.1938
4673,0.21666594,-0.47163746,9.578789,0.01096884,-0.001221729,-0.5724375,-97.94786,-108.17692,-955.3112
4679,0.8151906,0.070625916,9.74877,-0.002470184,0.002748891,-0.5535007,-97.94786,-108.17692,-955.3112
4693,0.8151906,0.070625916,9.74877,-0.002470184,0.002748891,-0.5535007,-11.143723,-71.92649,-1242.8896
4699,1.432868,0.5290959,9.6937065,0.002111301,-0.005497783,-0.66895413,-11.143723,-71.92649,-1242.8896
4715,1.432868,0.5290959,9.6937065,0.002111301,-0.005497783,-0.66895413,68.383804,-53.111458,-1277.1661
4717,0.7565352,-0.0921728,9.7020855,0.004249328,-0.02718348,-0.7611947,68.383804,-53.111458,-1277.1661
4734,0.7565352,-0.0921728,9.7020855,0.004249328,-0.02718348,-0.7611947,116.5281,-52.141884,-998.09503
4738,-0.1987102,-0.6942886,9.559637,0.021658972,-0.015271617,-0.70957667,116.5281,-52.141884,-998.09503
4754,-0.1987102,-0.6942886,9.559637,0.021658972,-0.015271617,-0.70957667,86.23613,-19.049828,-626.14136
4757,0.42495254,-0.5650073,9.591957,0.013717731,-0.020158537,-0.63993806,86.23613,-19.049828,-626.14136
4772,0.42495254,-0.5650073,9.591957,0.013717731,-0.020158537,-0.63993806,76.52492,22.292477,-371.0853
4778,0.6739388,-0.2980653,9.522528,0.013717731,-0.020158537,-0.63993806,76.52492,22.292477,-371.0853
4779,0.6739388,-0.2980653,9.522528,0.011274273,-0.01557705,-0.6610129,76.52492,22.292477,-371.0853
4793,0.6739388,-0.2980653,9.522528,0.011274273,-0.01557705,-0.6610129,61.95262,38.83853,-270.06656
4797,0.41298205,-0.23701578,9.559637,0.01616119,-0.007941242,-0.7123255,61.95262,38.83853,-270.06656
4814,0.41298205,-0.23701578,9.559637,0.01616119,-0.007941242,-0.7123255,18.39096,11.262215,-193.55222
4816,0.6667565,-0.4046027,9.626671,0.004249328,-0.010690134,-0.71812874,18.39096,11.262215,-193.55222
4834,0.6667565,-0.4046027,9.626671,0.004249328,-0.010690134,-0.71812874,24.814148,16.010887,-115.80848
4838,0.16878396,-0.556628,9.645824,0.004249328,-0.010690134,-0.71812874,24.814148,16.010887,-115.80848
4840,0.16878396,-0.556628,9.645824,0.006387354,-0.004886919,-0.6790334,24.814148,16.010887,-115.80848
4854,0.16878396,-0.556628,9.645824,0.006387354,-0.004886919,-0.6790334,37.559616,53.749283,-129.59128
4856,-0.049079023,-0.70745623,9.814608,-0.010411425,0.006414079,-0.6069514,37.559616,53.749283,-129.59128
4864,-0.049079023,-0.70745623,9.814608,-0.010411425,0.006414079,-0.6069514,37.559616,53.749283,-129.59128
4876,-0.049079023,-0.70745623,9.814608,-0.010411425,0.006414079,-0.6069514,-38.252945,54.79477,-162.22324
4877,0.5997217,-0.15082821,9.735603,0.03540343,-0.020158535,-0.6374946,-38.252945,54.79477,-162.22324
4893,0.5997217,-0.15082821,9.735603,0.03540343,-0.020158535,-0.6374946,-114.767044,24.465618,-133.67273
4896,0.7158355,-0.14484298,9.785879,0.001195004,-0.02351829,-0.6988865,-114.767044,24.465618,-133.67273
4914,0.7158355,-0.14484298,9.785879,0.001195004,-0.02351829,-0.6988865,-117.78859,4.3763123,-98.7533
4918,0.4441053,-0.5494456,9.601533,0.001195004,-0.02351829,-0.6988865,-117.78859,4.3763123,-98.7533
4919,0.4441053,-0.5494456,9.601533,0.010663407,-0.015577052,-0.678728,-117.78859,4.3763123,-98.7533
4934,0.4441053,-0.5494456,9.601533,0.010663407,-0.015577052,-0.678728,-114.06477,-9.142403,-127.09023
4938,-0.15920755,-0.7421706,9.64702,0.010663407,-0.015577052,-0.678728,-114.06477,-9.142403,-127.09023
4940,-0.15920755,-0.7421706,9.64702,-2.67E-05,0.008246673,-0.60970026,-114.06477,-9.142403,-127.09023
4954,-0.15920755,-0.7421706,9.64702,-2.67E-05,0.008246673,-0.60970026,-108.79625,-43.962097,-138.38889
4956,-0.15920755,-0.7421706,9.64702,-0.012854883,0.006108647,-0.48966536,-108.79625,-43.962097,-138.38889
4957,-0.04189673,-1.0522064,9.593154,-0.012854883,0.006108647,-0.48966536,-108.79625,-43.962097,-138.38889
4973,-0.04189673,-1.0522064,9.593154,-0.012854883,0.006108647,-0.48966536,-74.331985,-57.798576,-119.20391
4979,0.872649,-0.22384824,9.512952,-0.012854883,0.006108647,-0.48966536,-74.331985,-57.798576,-119.20391
4980,0.872649,-0.22384824,9.512952,-0.023239585,6.11E-04,-0.54525405,-74.331985,-57.798576,-119.20391
4994,0.872649,-0.22384824,9.512952,-0.023239585,6.11E-04,-0.54525405,-28.799973,-13.750717,-55.18943
4998,0.56620437,-0.3543266,9.71645,-0.004302778,0.02718348,-0.67231387,-28.799973,-13.750717,-55.18943
5012,0.56620437,-0.3543266,9.71645,-0.004302778,0.02718348,-0.67231387,-24.909744,28.53677,22.911339
5018,-0.4069968,-1.2329609,9.518936,-0.004302778,0.02718348,-0.67231387,-24.909744,28.53677,22.911339
5019,-0.4069968,-1.2329609,9.518936,-0.011938589,-0.014355322,-0.5874037,-24.909744,28.53677,22.911339
5033,-0.4069968,-1.2329609,9.518936,-0.011938589,-0.014355322,-0.5874037,-58.93245,28.601078,54.45382
5038,-0.8822254,-1.6303813,9.6051235,0.008525381,0.00641408,-0.4362147,-58.93245,28.601078,54.45382
5054,-0.8822254,-1.6303813,9.6051235,0.008525381,0.00641408,-0.4362147,-81.231064,6.7600174,80.33293
5057,-0.45487875,-1.8865497,9.551257,-0.009189695,-0.02199113,-0.3403089,-81.231064,6.7600174,80.33293
5065,-0.45487875,-1.8865497,9.551257,-0.009189695,-0.02199113,-0.3403089,-81.231064,6.7600174,80.33293
5073,-0.45487875,-1.8865497,9.551257,-0.009189695,-0.02199113,-0.3403089,-67.00548,2.0765533,86.8039
5077,-0.3100358,-1.4867353,9.613503,-0.009189695,-0.02199113,-0.3403089,-67.00548,2.0765533,86.8039
5079,-0.3100358,-1.4867353,9.613503,-0.001859319,-0.006719513,-0.24898465,-67.00548,2.0765533,86.8039
5093,-0.3100358,-1.4867353,9.613503,-0.001859319,-0.006719513,-0.24898465,-55.348587,-3.4395142,76.38553
5096,0.67393875,-0.7661116,9.575198,-0.006746238,-0.026878048,-0.30090815,-55.348587,-3.4395142,76.38553
5114,0.67393875,-0.7661116,9.575198,-0.006746238,-0.026878048,-0.30090815,-55.348587,-3.4395142,76.38553
5117,-0.23342462,-0.6679535,9.727223,0.020742675,0.003054323,-0.28777456,-55.348587,-3.4395142,76.38553
5135,-0.23342462,-0.6679535,9.727223,0.020742675,0.003054323,-0.28777456,-51.679,-20.861938,77.722275
5137,-0.23342462,-0.6679535,9.727223,0.005165625,-3.05E-04,-0.24929008,-51.679,-20.861938,77.722275
5138,-0.45607585,-0.7421706,9.739194,0.005165625,-3.05E-04,-0.24929008,-51.679,-20.861938,77.722275
5154,-0.45607585,-0.7421706,9.739194,0.005165625,-3.05E-04,-0.24929008,-37.98149,-24.175873,68.20819
5157,-0.28609478,-1.6243961,9.700888,0.005165625,-3.05E-04,-0.24929008,-37.98149,-24.175873,68.20819
5158,-0.28609478,-1.6243961,9.700888,8.90E-04,-0.008246675,-0.16346359,-37.98149,-24.175873,68.20819
5174,-0.28609478,-1.6243961,9.700888,8.90E-04,-0.008246675,-0.16346359,-24.700012,-22.399315,45.170616
5178,-0.90377223,-1.4963118,9.676947,8.90E-04,-0.008246675,-0.16346359,-24.700012,-22.399315,45.170616
5179,-0.90377223,-1.4963118,9.676947,0.006387354,-0.019853104,-0.055340525,-24.700012,-22.399315,45.170616
5193,-0.90377223,-1.4963118,9.676947,0.006387354,-0.019853104,-0.055340525,-51.041428,-17.226967,22.518578
5197,-0.509943,-1.1228323,9.685326,0.006387354,-0.019853104,-0.055340525,-51.041428,-17.226967,22.518578
5198,-0.509943,-1.1228323,9.685326,0.019520946,0.005497782,0.02162843,-51.041428,-17.226967,22.518578
5213,-0.509943,-1.1228323,9.685326,0.019520946,0.005497782,0.02162843,-92.87041,-17.187103,47.217346
5217,-0.18314856,-0.42375547,9.596745,0.006998219,0.017104212,8.59E-04,-92.87041,-17.187103,47.217346
5236,-0.29447412,-0.8379346,9.613503,0.001805869,0.017715076,0.06835958,-57.60237,-32.06694,76.84954
5253,-0.29447412,-0.8379346,9.613503,0.001805869,0.017715076,0.06835958,-34.266434,-40.475914,49.24888
5256,-0.053867225,-0.5949335,9.6458235,0.001805869,0.017715076,0.06835958,-34.266434,-40.475914,49.24888
5257,-0.053867225,-0.5949335,9.6458235,-3.32E-04,0.012522726,0.07843885,-34.266434,-40.475914,49.24888
5264,-0.053867225,-0.5949335,9.6458235,-3.32E-04,0.012522726,0.07843885,-34.266434,-40.475914,49.24888
5272,-0.053867225,-0.5949335,9.6458235,-3.32E-04,0.012522726,0.07843885,-38.292587,-52.745964,17.605026
5276,-0.38425285,-0.9133487,9.575198,-9.43E-04,0.006719512,0.09920825,-38.292587,-52.745964,17.605026
5293,-0.38425285,-0.9133487,9.575198,-9.43E-04,0.006719512,0.09920825,-75.16536,-39.144455,3.2097702
5297,-1.1982464,-0.99115694,9.536892,0.007609084,0.001527161,0.24123429,-75.16536,-39.144455,3.2097702
5313,-1.1982464,-0.99115694,9.536892,0.007609084,0.001527161,0.24123429,-68.210526,-42.29265,8.675766
5316,-0.41657317,0.4728345,9.603928,0.007609084,0.001527161,0.24123429,-68.210526,-42.29265,8.675766
5317,-0.41657317,0.4728345,9.603928,-9.43E-04,-0.007941242,0.26933408,-68.210526,-42.29265,8.675766
5334,-0.41657317,0.4728345,9.603928,-9.43E-04,-0.007941242,0.26933408,-88.64473,-34.427902,-5.574806
5337,0.7254119,0.532687,9.658991,-9.43E-04,-0.007941242,0.26933408,-88.64473,-34.427902,-5.574806
5338,0.7254119,0.532687,9.658991,0.015550325,0.006414079,0.18686733,-88.64473,-34.427902,-5.574806
5354,0.7254119,0.532687,9.658991,0.015550325,0.006414079,0.18686733,-113.042404,-24.729736,17.577942
5356,0.09576397,0.38904104,9.793061,0.015550325,0.006414079,0.18686733,-113.042404,-24.729736,17.577942
5357,0.09576397,0.38904104,9.793061,0.003027598,0.003359756,0.10104085,-113.042404,-24.729736,17.577942
5373,0.09576397,0.38904104,9.793061,0.003027598,0.003359756,0.10104085,-91.38924,-29.760864,43.965675
5376,-0.5853571,-0.50156367,9.596745,0.003027598,0.003359756,0.10104085,-91.38924,-29.760864,43.965675
5377,-0.5853571,-0.50156367,9.596745,-0.002775617,-0.02351829,0.08760182,-91.38924,-29.760864,43.965675
5393,-0.5853571,-0.50156367,9.596745,-0.002775617,-0.02351829,0.08760182,-64.73781,-34.796234,44.165802
5397,-0.7146385,-0.4249525,9.71645,0.010052543,0.005497782,0.15052088,-64.73781,-34.796234,44.165802
5414,-0.7146385,-0.4249525,9.71645,0.010052543,0.005497782,0.15052088,-41.77513,-36.083008,24.415268
5415,-0.42375547,-0.61528337,9.463872,-0.015909208,-0.0311541,0.20366612,-41.77513,-36.083008,24.415268
5434,-0.42375547,-0.61528337,9.463872,-0.015909208,-0.0311541,0.20366612,-26.104813,-22.432793,-5.5567093
5437,-0.31961218,-0.6667565,9.155033,-0.01743637,-0.02962694,0.3753191,-26.104813,-22.432793,-5.5567093
5453,-0.31961218,-0.6667565,9.155033,-0.01743637,-0.02962694,0.3753191,-38.713577,14.408436,-30.319374
5456,-0.2370158,-0.13047838,9.392049,0.00577649,-0.015577052,0.3875364,-38.713577,14.408436,-30.319374
5474,-0.2370158,-0.13047838,9.392049,0.00577649,-0.015577052,0.3875364,-75.067764,42.846996,-1.3493576
5477,-0.31841514,0.076611154,9.43634,0.00577649,-0.015577052,0.3875364,-75.067764,42.846996,-1.3493576
5478,-0.31841514,0.076611154,9.43634,-0.00460821,-0.015882483,0.3261445,-75.067764,42.846996,-1.3493576
5493,-0.31841514,0.076611154,9.43634,-0.00460821,-0.015882483,0.3261445,-73.716965,32.331894,36.30184
5498,-0.69309163,-0.028729185,9.681736,0.015550325,-0.004886918,0.3044588,-73.716965,32.331894,36.30184
5515,-0.5003666,-0.5949335,9.97621,-0.006746238,-0.02718348,0.38173318,-65.88002,23.51027,58.976685
5535,-0.11132559,-0.30644464,9.799046,-0.003691914,0.001221729,0.3857038,-66.860825,14.589699,83.12059
5554,-0.11132559,-0.30644464,9.799046,-0.003691914,0.001221729,0.3857038,-66.5818,-10.079041,105.85799
5556,-0.73139715,-0.28729185,10.006136,0.002416734,-0.05039634,0.36493438,-66.5818,-10.079041,105.85799
5573,-0.73139715,-0.28729185,10.006136,0.002416734,-0.05039634,0.36493438,-69.32884,-32.65644,100.334145
5576,-0.14244887,0.061049514,9.27833,-0.013771182,-0.009468405,0.32003582,-69.32884,-32.65644,100.334145
5593,-0.14244887,0.061049514,9.27833,-0.013771182,-0.009468405,0.32003582,-78.095474,-31.931396,83.5058
5595,-0.14244887,0.061049514,9.27833,-0.021101559,0.004581485,0.27086124,-78.095474,-31.931396,83.5058
5597,0.021546885,0.10773444,9.709268,-0.021101559,0.004581485,0.27086124,-78.095474,-31.931396,83.5058
5612,0.021546885,0.10773444,9.709268,-0.021101559,0.004581485,0.27086124,-85.427505,-20.776932,81.89278
5616,-0.5410663,-0.4069968,9.764332,-0.017741803,-0.009468405,0.32217386,-85.427505,-20.776932,81.89278
5635,-0.7840673,-0.48839614,9.654203,-0.017741803,-0.009468405,0.32217386,-81.55623,-14.699867,91.39252
5636,-0.7840673,-0.48839614,9.654203,-0.01621464,-0.00397062,0.37440282,-81.55623,-14.699867,91.39252
5655,-0.44051418,-0.10773445,9.617095,-0.019268963,-0.019242238,0.368905,-73.07454,-17.077385,94.69162
5663,-0.44051418,-0.10773445,9.617095,-0.019268963,-0.019242238,0.368905,-73.07454,-17.077385,94.69162
5674,-0.44051418,-0.10773445,9.617095,-0.019268963,-0.019242238,0.368905,-68.20323,-17.534317,96.796844
5677,-0.19990724,-0.39861745,9.656597,0.003943896,0.04489856,0.33439115,-68.20323,-17.534317,96.796844
5694,-0.19990724,-0.39861745,9.656597,0.003943896,0.04489856,0.33439115,-69.34715,-25.288681,92.03617
5697,-0.058655415,-0.36988825,9.589562,-0.013465749,0.008552106,0.3432487,-69.34715,-25.288681,92.03617
5713,-0.058655415,-0.36988825,9.589562,-0.013465749,0.008552106,0.3432487,-76.70146,-31.32808,84.87656
5715,-0.460864,-0.38904107,9.366911,-0.006746238,0.003970621,0.4171633,-76.70146,-31.32808,84.87656
5734,-0.460864,-0.38904107,9.366911,-0.006746238,0.003970621,0.4171633,-86.98799,-41.827393,65.90279
5736,-0.3244004,-0.14244887,9.903189,-0.006135372,0.005497782,0.4196068,-86.98799,-41.827393,65.90279
5756,-0.3710853,0.14723708,9.879249,-0.003081049,0.032681264,0.39608848,-88.14436,-33.105446,41.471893
5774,-0.3710853,0.14723708,9.879249,-0.003081049,0.032681264,0.39608848,-78.85368,-25.362381,35.851807
5777,-0.2693361,-0.2250453,9.826578,-0.003081049,0.032681264,0.39608848,-78.85368,-25.362381,35.851807
5778,-0.2693361,-0.2250453,9.826578,-0.017436368,0.032681264,0.34569216,-78.85368,-25.362381,35.851807
5794,-0.2693361,-0.2250453,9.826578,-0.017436368,0.032681264,0.34569216,-66.466385,-17.728989,38.658516
5798,-0.6404214,-0.3854499,9.591957,-0.01621464,0.002138026,0.37348652,-66.466385,-17.728989,38.658516
5814,-0.9660188,-0.4189673,9.571607,0.003333031,0.012217294,0.45992386,-61.05214,-15.898613,44.911537
5835,-0.629648,0.58775127,9.623079,0.003333031,0.012217294,0.45992386,-67.60463,-26.222069,37.587555
5836,-0.629648,0.58775127,9.623079,0.007914516,0.02199113,0.5145963,-67.60463,-26.222069,37.587555
5856,-0.11970494,1.1766995,9.68413,2.79E-04,0.014355321,0.38936898,-59.450363,-18.300438,20.600327
5864,-0.11970494,1.1766995,9.68413,2.79E-04,0.014355321,0.38936898,-59.450363,-18.300438,20.600327
5873,-0.11970494,1.1766995,9.68413,2.79E-04,0.014355321,0.38936898,-44.801254,-19.260834,30.606155
5875,-0.11611378,0.8391316,9.563228,2.79E-04,0.014355321,0.38936898,-44.801254,-19.260834,30.606155
5876,-0.11611378,0.8391316,9.563228,-0.013160316,0.029016074,0.30140448,-44.801254,-19.260834,30.606155
5893,-0.11611378,0.8391316,9.563228,-0.013160316,0.029016074,0.30140448,-52.48787,-22.189072,30.063522
5896,-0.8786342,0.061049514,9.670961,-0.015603775,0.010690132,0.40067,-52.48787,-22.189072,30.063522
5914,-0.8786342,0.061049514,9.670961,-0.015603775,0.010690132,0.40067,-52.48787,-22.189072,30.063522
5915,-0.7290031,0.8151906,9.6961,-0.03606774,-0.006719513,0.47519547,-52.48787,-22.189072,30.063522
5934,-0.7290031,0.8151906,9.6961,-0.03606774,-0.006719513,0.47519547,-65.311295,-24.714882,10.658325
5936,-0.64999783,1.4125183,9.527316,-0.03606774,-0.006719513,0.47519547,-65.311295,-24.714882,10.658325
5937,-0.64999783,1.4125183,9.527316,-0.020796126,-0.002443459,0.3374455,-65.311295,-24.714882,10.658325
5954,-0.6404214,0.7589293,9.581183,-0.037594907,0.014660752,0.18625647,-62.95009,-3.5574112,-13.3370285
5973,-0.6404214,0.7589293,9.581183,-0.037594907,0.014660752,0.18625647,-52.775406,21.31427,1.9571533
5975,-1.5657406,-0.63443613,9.433947,-0.037594907,0.014660752,0.18625647,-52.775406,21.31427,1.9571533
5976,-1.5657406,-0.63443613,9.433947,-0.06477838,0.01557705,0.23543108,-52.775406,21.31427,1.9571533
5994,-1.5657406,-0.63443613,9.433947,-0.06477838,0.01557705,0.23543108,-46.06035,10.763931,45.553093
5995,-1.6088343,-0.62126863,9.475842,-0.084936924,0.060170174,0.5420851,-46.06035,10.763931,45.553093
6014,-1.6088343,-0.62126863,9.475842,-0.084936924,0.060170174,0.5420851,-70.29976,-17.366837,32.85295
6016,-0.49079025,1.1012855,9.674553,-0.08310432,0.01832594,0.54086345,-70.29976,-17.366837,32.85295
6034,-0.21427184,1.8566236,9.740391,-0.08035543,0.014660753,0.33072597,-89.40398,7.3278656,-6.4621964
6055,-0.8271612,0.10294625,9.909174,-0.07852284,0.08368847,0.2555896,-91.83858,32.133575,12.029106
6065,-0.8271612,0.10294625,9.909174,-0.07852284,0.08368847,0.2555896,-91.83858,32.133575,12.029106
6075,-1.3658333,-0.9839746,10.060002,-0.026904771,0.051312637,0.623941,-90.55968,25.055573,25.696686
6095,-0.76970273,-0.24180397,9.782288,-0.053477384,0.060781036,0.6144726,-98.76323,7.16848,28.070526
6113,-0.76970273,-0.24180397,9.782288,-0.053477384,0.060781036,0.6144726,-105.997574,1.5877609,-8.458168
6115,-1.1240294,0.63204205,9.499784,-0.053477384,0.060781036,0.6144726,-105.997574,1.5877609,-8.458168
6116,-1.1240294,0.63204205,9.499784,-0.03606774,0.002138026,0.73511845,-105.997574,1.5877609,-8.458168
6135,0.363903,1.1623349,10.156964,-0.03606774,0.002138026,0.73511845,-101.81801,1.7721252,-21.260567
6136,0.363903,1.1623349,10.156964,-0.025988476,0.02199113,0.7736029,-101.81801,1.7721252,-21.260567
6156,-0.24659216,0.17237513,9.732012,-0.06661098,0.062919065,0.2641417,-84.73921,-2.2136612,-23.11979
6175,-1.4089272,-1.2964046,9.5811825,-0.04339812,0.025045455,0.56926864,-109.23866,-10.535515,-37.034294
6196,-0.02394101,0.21546885,9.617095,-0.03270799,0.006719511,0.7558878,-92.82289,-2.1752777,-117.29664
6212,-0.02394101,0.21546885,9.617095,-0.03270799,0.006719511,0.7558878,-24.384064,-14.100548,-98.90031
6214,1.04263,2.1546888,9.560833,-0.037900336,0.02351829,0.36890504,-24.384064,-14.100548,-98.90031
6235,-0.40819383,0.6799241,9.588366,-0.037900336,0.02351829,0.36890504,-24.384064,-14.100548,-98.90031
6236,-0.40819383,0.6799241,9.588366,-0.028431935,-0.025656316,0.17678806,-0.17025757,-31.542015,-74.23698
6256,-1.2317638,-1.3730156,9.626671,-0.028431935,-0.025656316,0.17678806,-0.17025757,-31.542015,-74.23698
6257,-1.2317638,-1.3730156,9.626671,-0.028737368,9.16E-04,0.5243701,15.776489,-39.889923,-46.56617
6264,-1.2317638,-1.3730156,9.626671,-0.028737368,9.16E-04,0.5243701,15.776489,-39.889923,-46.56617
6275,-0.6511949,-1.0282655,9.743982,-0.028126502,0.019242238,0.81056017,11.637756,-31.71621,-14.231041
6295,2.5856266,1.5777111,9.662582,-0.014992911,-9.16E-04,0.4987138,4.5040283,-25.000275,8.137688
6314,-0.6643623,1.6698837,9.802637,-0.009189695,-0.006719513,0.41930133,-20.91536,-21.705772,16.842583
6333,-0.6643623,1.6698837,9.802637,-0.009189695,-0.006719513,0.41930133,-34.63704,-5.735054,-3.1566544
6335,-1.8482442,0.2717302,9.788273,-0.011633154,-0.010690134,0.45289892,-34.63704,-5.735054,-3.1566544
6355,-0.2717302,-0.5961306,9.858898,-0.011633154,0.010995565,0.517956,-45.04265,2.427147,2.1772842
6375,-0.11850786,-0.20110431,9.536892,-0.0385112,-0.003359756,0.76413447,-51.273514,13.259811,-38.34794
6396,2.106807,1.912885,9.661386,-0.022934152,0.016187916,0.2726938,-14.024506,32.549957,-25.779518
6414,-1.941614,0.45487875,9.76553,-0.01896353,-0.015271619,0.45900756,-14.120392,38.555527,27.887741
6435,-0.2765184,-0.16758691,9.691311,-0.01621464,-0.005803215,0.5527753,-45.980698,37.316,46.49257
6455,0.7577322,-0.33038563,9.82538,-0.01621464,-0.005803215,0.5527753,-67.74495,30.539364,26.094704
6456,0.7577322,-0.33038563,9.82538,-0.02537761,-0.00366519,0.5622437,-67.74495,30.539364,26.094704
6463,0.7577322,-0.33038563,9.82538,-0.02537761,-0.00366519,0.5622437,-67.74495,30.539364,26.094704
6475,0.51712537,0.43452892,9.575197,-0.015298342,-0.025656316,0.495354,-75.73439,10.815903,-0.7492142
6495,0.46445516,0.9097575,10.003741,-9.43E-04,0.020158535,0.5203995,-70.099106,-7.729721,-19.728584
6515,1.1371969,1.4161094,9.5811825,-9.43E-04,0.020158535,0.5203995,-70.099106,-7.729721,-19.728584
6517,1.1371969,1.4161094,9.5811825,0.001805869,0.004581485,0.4492337,-48.50038,-15.5298,-36.395058
6535,1.9487964,1.4963117,9.737996,0.014939461,0.015271617,0.2940741,-19.604996,-23.686493,-7.1580276
6556,0.9684129,1.0079155,9.669765,0.014939461,0.015271617,0.2940741,-19.604996,-23.686493,-7.1580276
6557,0.9684129,1.0079155,9.669765,0.004860193,0.007024944,0.19175425,-29.21135,-20.38012,22.612846
6575,0.2573656,-0.090975754,9.63505,0.004860193,0.007024944,0.19175425,-38.536148,-17.206093,26.702919
6576,0.2573656,-0.090975754,9.63505,-2.67E-05,0.003665187,0.2962121,-38.536148,-17.206093,26.702919
6597,1.1934582,-0.6440126,9.690115,-0.001248455,-0.004886918,0.2891872,-49.48848,-22.8032,25.882576
6619,1.796771,-0.37467647,9.699691,-3.32E-04,0.014049888,0.26597428,-79.77782,-23.322716,26.328964
6634,1.796771,-0.37467647,9.699691,0.009441678,-0.002748892,0.21466167,-79.77782,-23.322716,26.328964
6635,2.3258667,-0.25975972,9.595549,0.009441678,-0.002748892,0.21466167,-107.36861,-20.370949,-15.378746
6656,2.10561,-0.18554266,9.558439,0.009441678,-0.010079268,0.1676251,-108.1815,-6.683609,-53.033043
6666,2.10561,-0.18554266,9.558439,0.009441678,-0.010079268,0.1676251,-108.1815,-6.683609,-53.033043
6675,1.479553,-0.35791773,9.650612,0.009441678,-0.010079268,0.1676251,-93.316055,9.05159,-74.846535
6676,1.479553,-0.35791773,9.650612,-3.32E-04,-0.004886918,0.14929914,-93.316055,9.05159,-74.846535
6696,1.769239,-0.7146385,9.583577,0.009441678,-0.001832595,0.11417443,-84.17354,23.11184,-81.38354
6714,1.79318,-0.9839746,9.595548,0.009441678,-0.001832595,0.11417443,-84.17354,23.11184,-81.38354
6715,1.79318,-0.9839746,9.595548,0.001500437,-0.00641408,0.106233194,-84.17354,23.11184,-81.38354
6735,2.1726446,-0.8929988,9.621882,-0.006440805,-0.007024944,0.080271445,-76.17799,27.218681,-84.68711
6755,1.8985204,-0.6667565,9.624277,-0.006440805,-0.007024944,0.080271445,-71.96394,31.790272,-86.41619
6756,1.8985204,-0.6667565,9.624277,-3.32E-04,0,0.07966057,-71.96394,31.790272,-86.41619
6775,1.7524803,-0.35911483,9.613503,-2.67E-05,-9.16E-04,0.050033636,-70.9052,32.264935,-89.193794
6794,1.5597553,-0.29327708,9.642233,0.001500437,0,0.036900047,-69.83504,33.904102,-94.73843
6815,1.3131633,-0.14843413,9.657795,-6.38E-04,-3.05E-04,0.018268673,-71.075485,33.597244,-97.03303
6835,0.7661116,-0.057458367,9.620686,-6.38E-04,-3.05E-04,0.018268673,-71.075485,33.597244,-97.03303
6836,0.7661116,-0.057458367,9.620686,-2.67E-05,0.001527161,0.003302486,-69.69716,34.507504,-99.19842
6856,0.07182296,-0.13646364,9.631458,-2.67E-05,0.001527161,0.003302486,-67.712875,34.55588,-98.44877
6857,0.07182296,-0.13646364,9.631458,-2.67E-05,3.05E-04,-3.63E-04,-67.712875,34.55588,-98.44877
6865,0.07182296,-0.13646364,9.631458,-2.67E-05,3.05E-04,-3.63E-04,-67.712875,34.55588,-98.44877
6875,0.11132559,-0.12449314,9.642233,-3.32E-04,-6.11E-04,-3.63E-04,-69.73204,33.069397,-98.8915
6895,0.15441936,-0.12449314,9.648218,-3.32E-04,-6.11E-04,-3.63E-04,-69.73204,33.069397,-98.8915
6896,0.15441936,-0.12449314,9.648218,-2.67E-05,0.001221729,-0.001278999,-68.319565,34.39091,-97.520454
6914,0.09576395,-0.12090199,9.642233,5.84E-04,6.11E-04,2.48E-04,-70.46983,33.763073,-98.115105
6935,0.03830558,-0.13167544,9.639838,2.79E-04,9.16E-04,2.48E-04,-70.170364,33.775448,-98.8868
6956,0.08977871,-0.122099034,9.607517,-0.001553888,0,8.59E-04,-69.54527,34.65862,-99.81483
6974,0.08977871,-0.122099034,9.607517,-0.001248455,9.16E-04,2.48E-04,-68.030136,34.41184,-99.82964
6975,0.14244889,-0.11970493,9.621883,-0.001248455,9.16E-04,2.48E-04,-68.030136,34.41184,-99.82964
6993,0.11731084,-0.11731084,9.658991,-6.38E-04,-0.001527162,2.48E-04,-68.517075,32.664036,-97.673454
7014,0.11731084,-0.11731084,9.658991,-6.38E-04,-0.001527162,2.48E-04,-68.78133,34.383034,-98.2848
7016,0.05745837,-0.12928134,9.641035,-6.38E-04,-0.001527162,2.48E-04,-68.78133,34.383034,-98.2848
7017,0.05745837,-0.12928134,9.641035,2.79E-04,-0.001832595,-0.001889864,-68.78133,34.383034,-98.2848
7032,0.083793454,-0.12928133,9.630262,5.84E-04,-0.001527162,-6.68E-04,-68.91582,34.51066,-96.13076
7053,0.12329609,-0.14125183,9.619489,5.84E-04,-0.001527162,-6.68E-04,-68.91582,34.51066,-96.13076
7054,0.12329609,-0.14125183,9.619489,5.84E-04,-0.001527162,-0.001584431,-69.55702,33.200844,-95.97167
7073,0.11850789,-0.11850789,9.632656,8.90E-04,3.05E-04,-0.002500728,-68.37456,32.9699,-100.28855
7093,0.06464066,-0.13766068,9.663779,0.001805869,-6.11E-04,-9.74E-04,-68.37456,32.9699,-100.28855
7094,0.06464066,-0.13766068,9.663779,0.001805869,-6.11E-04,-9.74E-04,-68.490585,33.815723,-98.134224
7113,0.06942886,-0.11611379,9.6374445,-2.67E-05,3.05E-04,-0.002806161,-68.490585,33.815723,-98.134224
7114,0.06942886,-0.11611379,9.6374445,-2.67E-05,3.05E-04,-0.002806161,-68.21562,32.674698,-98.13764
7133,0.12090199,-0.13167544,9.61949,8.90E-04,-9.16E-04,-6.68E-04,-68.51607,33.103508,-99.21078
7152,0.12928134,-0.12688723,9.619488,0.001805869,-3.05E-04,-0.001278999,-67.73433,33.84025,-98.91032
7172,0.0849905,-0.12329608,9.641035,2.79E-04,-9.16E-04,5.54E-04,-67.73433,33.84025,-98.91032
7173,0.0849905,-0.12329608,9.641035,2.79E-04,-9.16E-04,5.54E-04,-69.84706,34.354687,-98.27451
7193,0.067034766,-0.13287248,9.649415,2.79E-04,-9.16E-04,5.54E-04,-69.84706,34.354687,-98.27451
7194,0.067034766,-0.13287248,9.649415,-3.32E-04,-3.05E-04,2.48E-04,-68.77632,34.37876,-97.516045
7215,0.10055214,-0.13526659,9.647021,0.001195004,0,2.48E-04,-69.705185,34.514343,-100.42841
7231,0.10534035,-0.12090199,9.633854,0.001195004,0,2.48E-04,-69.705185,34.514343,-100.42841
7232,0.10534035,-0.12090199,9.633854,8.90E-04,0.001527161,-0.002195296,-68.16765,34.54202,-98.13686
7252,0.10294625,-0.12329608,9.63146,8.90E-04,0.001527161,-0.002195296,-68.16765,34.54202,-98.13686
7253,0.10294625,-0.12329608,9.63146,-6.38E-04,-9.16E-04,-3.63E-04,-69.42958,33.079205,-99.20196
7263,0.10294625,-0.12329608,9.63146,-6.38E-04,-9.16E-04,-3.63E-04,-69.42958,33.079205,-99.20196
7273,0.08618756,-0.12329608,9.655399,-2.67E-05,-6.11E-04,-0.001889864,-70.1754,33.779724,-99.655556
7294,0.106537394,-0.12688723,9.642233,-2.67E-05,-6.11E-04,-0.001889864,-70.1754,33.779724,-99.655556
7295,0.106537394,-0.12688723,9.642233,-6.38E-04,0.001221729,-9.74E-04,-69.566055,33.64886,-99.0465
7313,0.09815805,-0.12688723,9.648218,-2.67E-05,-6.11E-04,8.59E-04,-69.566055,33.64886,-99.0465
7314,0.09815805,-0.12688723,9.648218,-2.67E-05,-6.11E-04,8.59E-04,-68.80278,33.6674,-98.746346
7333,0.10055215,-0.12688723,9.633854,2.79E-04,6.11E-04,-0.001584431,-68.80278,33.6674,-98.746346
7334,0.10055215,-0.12688723,9.633854,2.79E-04,6.11E-04,-0.001584431,-69.41518,33.360497,-98.12557
7352,0.0849905,-0.13287249,9.626671,2.79E-04,6.11E-04,-0.001584431,-69.41518,33.360497,-98.12557
7353,0.0849905,-0.13287249,9.626671,2.79E-04,6.11E-04,-0.001584431,-69.84773,34.648808,-99.50439
7373,0.1041433,-0.12449314,9.643431,-6.38E-04,-3.05E-04,-0.001584431,-69.71327,34.08086,-99.96734
7393,0.11970493,-0.13047838,9.650613,0.001195004,-9.16E-04,8.59E-04,-69.71327,34.08086,-99.96734
7394,0.11970493,-0.13047838,9.650613,0.001195004,-9.16E-04,8.59E-04,-68.946976,34.096836,-99.20594
7412,0.0993551,-0.11252264,9.648218,0.001195004,-9.16E-04,8.59E-04,-68.946976,34.096836,-99.20594
7413,0.0993551,-0.11252264,9.648218,8.90E-04,6.11E-04,-3.63E-04,-69.12773,32.94281,-99.0512
7432,0.050276075,-0.13646364,9.650612,5.84E-04,-0.001527162,-3.63E-04,-68.49559,33.82,-98.90296
7452,0.10534035,-0.11611378,9.636248,5.84E-04,-0.001527162,-3.63E-04,-68.49559,33.82,-98.90296
7453,0.10534035,-0.11611378,9.636248,-0.001248455,-3.05E-04,-3.63E-04,-67.97279,36.124405,-97.83016
7463,0.10534035,-0.11611378,9.636248,-0.001248455,-3.05E-04,-3.63E-04,-67.97279,36.124405,-97.83016
7472,0.12090199,-0.13526657,9.642233,-2.67E-05,-0.001527162,-0.001278999,-69.74815,32.64275,-99.66044
7493,0.11252265,-0.13766068,9.6374445,-2.67E-05,-0.001527162,-0.001278999,-69.74815,32.64275,-99.66044
7496,0.11252265,-0.13766068,9.6374445,-3.32E-04,0.001832594,-0.001584431,-68.18877,34.11965,-99.67454
7512,0.08259641,-0.11970494,9.624277,-2.67E-05,6.11E-04,2.48E-04,-68.18877,34.11965,-99.67454
7533,0.07182296,-0.13646364,9.632656,2.79E-04,-3.05E-04,5.54E-04,-71.0547,34.607002,-97.80137
7552,0.08858165,-0.1089315,9.636248,-0.001553888,3.05E-04,-3.63E-04,-69.54256,34.362785,-98.27744
7573,0.11132559,-0.12569019,9.64702,5.84E-04,-3.05E-04,5.54E-04,-70.29344,34.62725,-97.80871
7592,0.1089315,-0.12329608,9.65181,5.84E-04,-0.001221729,-9.74E-04,-70.32228,33.624332,-98.27039
7611,0.08618756,-0.11371969,9.645824,-0.001248455,0,-3.63E-04,-70.32228,33.624332,-98.27039
7612,0.08618756,-0.11371969,9.645824,-0.001248455,0,-3.63E-04,-69.56911,33.211105,-97.81666
7632,0.07900526,-0.12688723,9.607519,2.79E-04,-0.001221729,-0.001278999,-69.56911,33.211105,-97.81666
7633,0.07900526,-0.12688723,9.607519,2.79E-04,-0.001221729,-0.001278999,-68.50166,33.3848,-98.13439
7652,0.08379346,-0.12329608,9.633853,-0.001248455,0.001527161,-3.63E-04,-68.50166,33.3848,-98.13439
7653,0.08379346,-0.12329608,9.633853,-0.001248455,0.001527161,-3.63E-04,-69.1093,33.66101,-99.05091
7672,0.0921728,-0.12928134,9.661386,-0.001248455,0.001527161,-3.63E-04,-69.1093,33.66101,-99.05091
7673,0.0921728,-0.12928134,9.661386,-6.38E-04,6.11E-04,-9.74E-04,-68.84773,31.797516,-98.28588
7692,0.10534035,-0.12928134,9.669765,-2.67E-05,0.001527161,-9.74E-04,-68.84773,31.797516,-98.28588
7693,0.10534035,-0.12928134,9.669765,-2.67E-05,0.001527161,-9.74E-04,-68.36986,32.232033,-96.7526
7711,0.11252265,-0.12569019,9.620686,5.84E-04,-9.16E-04,-5.73E-05,-68.36986,32.232033,-96.7526
7712,0.11252265,-0.12569019,9.620686,5.84E-04,-9.16E-04,-5.73E-05,-68.8293,32.515717,-98.285576
7733,0.1089315,-0.14244889,9.6147,5.84E-04,-9.16E-04,-5.73E-05,-68.8293,32.515717,-98.285576
7734,0.1089315,-0.14244889,9.6147,-2.67E-05,0,-0.001889864,-70.13347,35.211845,-98.88619
7750,0.096961,-0.12209904,9.632656,-2.67E-05,0,-0.001889864,-70.13347,35.211845,-98.88619
7751,0.096961,-0.12209904,9.632656,0.001195004,-0.001832595,-0.002806161,-70.13347,35.211845,-98.88619
7752,0.096961,-0.12209904,9.632656,0.001195004,-0.001832595,-0.002806161,-68.79976,33.664833,-98.2851
7771,0.09815805,-0.13406953,9.608715,0.001195004,-0.001832595,-0.002806161,-68.79976,33.664833,-98.2851
7772,0.09815805,-0.13406953,9.608715,-0.001248455,-3.05E-04,-3.63E-04,-69.57512,33.216236,-98.739174
7791,0.07421706,-0.110128544,9.68413,-0.001248455,-3.05E-04,-3.63E-04,-69.57512,33.216236,-98.739174
7792,0.07421706,-0.110128544,9.68413,0.003638463,0.001527161,-5.73E-05,-68.795425,33.95468,-98.74622
7810,0.09336985,-0.13047838,9.682932,0.003638463,0.001527161,-5.73E-05,-68.795425,33.95468,-98.74622
7811,0.09336985,-0.13047838,9.682932,-9.43E-04,-9.16E-04,-0.001584431,-69.38765,34.51133,-98.432594
7831,0.13047838,-0.122099034,9.60273,0.001195004,9.16E-04,-0.001584431,-68.83232,32.518284,-98.74682
7851,0.12329608,-0.12209904,9.662582,0.002111301,3.05E-04,-0.001278999,-68.83232,32.518284,-98.74682
7852,0.12329608,-0.12209904,9.662582,0.002111301,3.05E-04,-0.001278999,-70.173416,33.337685,-97.656975
7865,0.12329608,-0.12209904,9.662582,0.002111301,3.05E-04,-0.001278999,-70.173416,33.337685,-97.656975
7872,0.08499051,-0.13406953,9.648218,-2.67E-05,3.05E-04,-6.68E-04,-68.9785,33.38975,-101.204994
7891,0.08618756,-0.12449314,9.662582,-2.67E-05,3.05E-04,-6.68E-04,-68.9785,33.38975,-101.204994
7892,0.08618756,-0.12449314,9.662582,-6.38E-04,-0.002138027,5.54E-04,-68.320206,34.68503,-98.75033
7912,0.11252265,-0.12209904,9.623079,-0.001859319,6.11E-04,-3.63E-04,-69.4091,33.795696,-98.89414
7932,0.07661116,-0.13287249,9.6051235,0.003638463,0.003359756,-6.68E-04,-69.68977,34.794785,-99.198296
7950,0.090975754,-0.10414329,9.644627,0.003638463,0.003359756,-6.68E-04,-69.68977,34.794785,-99.198296
7951,0.090975754,-0.10414329,9.644627,-3.32E-04,0.001527161,-5.73E-05,-69.68977,34.794785,-99.198296
7952,0.090975754,-0.10414329,9.644627,-3.32E-04,0.001527161,-5.73E-05,-68.94496,34.095127,-98.898445
7970,0.11731084,-0.13047838,9.621883,-3.32E-04,0.001527161,-5.73E-05,-68.94496,34.095127,-98.898445
7971,0.11731084,-0.13047838,9.621883,-0.001553888,0,-0.001584431,-69.74312,32.638474,-98.891685
7990,0.118507884,-0.13526659,9.618292,-2.67E-05,3.05E-04,-6.68E-04,-69.74312,32.638474,-98.891685
7992,0.118507884,-0.13526659,9.618292,-2.67E-05,3.05E-04,-6.68E-04,-68.98424,32.367172,-98.13041
8010,0.08379346,-0.11731084,9.654203,-2.67E-05,3.05E-04,-6.68E-04,-68.98424,32.367172,-98.13041
8011,0.08379346,-0.11731084,9.654203,-3.32E-04,9.16E-04,-0.001278999,-68.765915,34.663475,-97.054665
8030,0.07182296,-0.11371969,9.631459,-3.32E-04,9.16E-04,-0.001278999,-68.765915,34.663475,-97.054665
8031,0.07182296,-0.11371969,9.631459,5.84E-04,0.001221729,-6.68E-04,-69.69618,34.066326,-97.353584
8050,0.10055215,-0.13047838,9.644627,8.90E-04,9.16E-04,-6.68E-04,-69.69618,34.066326,-97.353584
8051,0.10055215,-0.13047838,9.644627,8.90E-04,9.16E-04,-6.68E-04,-70.15996,34.06016,-98.42544
8063,0.10055215,-0.13047838,9.644627,8.90E-04,9.16E-04,-6.68E-04,-70.15996,34.06016,-98.42544
8070,0.09576395,-0.12688723,9.638641,-3.32E-04,6.11E-04,5.54E-04,-70.15996,34.06016,-98.42544
8072,0.09576395,-0.12688723,9.638641,-3.32E-04,6.11E-04,5.54E-04,-67.73738,33.402485,-97.680504
8101,0.08020231,-0.13287249,9.589563,-0.001553888,-0.002138027,-0.001278999,-67.73738,33.402485,-97.680504
8102,0.08020231,-0.13287249,9.589563,-0.001553888,-0.002138027,-0.001278999,-69.383286,34.801174,-98.89373
8111,0.106537394,-0.120901994,9.62308,-0.001248455,-9.16E-04,-0.001889864,-71.22102,33.734272,-96.57026
8128,0.13167544,-0.12808429,9.647021,-0.001248455,-9.16E-04,-0.001889864,-71.22102,33.734272,-96.57026
8129,0.13167544,-0.12808429,9.647021,-0.002164751,-3.05E-04,0.001469892,-71.22102,33.734272,-96.57026
8131,0.13167544,-0.12808429,9.647021,-0.002164751,-3.05E-04,0.001469892,-68.921524,34.80905,-98.12939
8149,0.11132559,-0.12928134,9.626671,-0.002164751,-3.05E-04,0.001469892,-68.921524,34.80905,-98.12939
8150,0.11132559,-0.12928134,9.626671,5.84E-04,3.05E-04,-5.73E-05,-68.921524,34.80905,-98.12939
8155,0.11132559,-0.12928134,9.626671,5.84E-04,3.05E-04,-5.73E-05,-69.4088,34.08896,-99.97028
8169,0.09815805,-0.13287248,9.627869,0.001195004,-3.05E-04,-3.63E-04,-69.4088,34.08896,-99.97028
8171,0.09815805,-0.13287248,9.627869,0.001195004,-3.05E-04,-3.63E-04,-69.107285,33.6593,-98.7434
8188,0.07302001,-0.13167544,9.626671,2.79E-04,-6.11E-04,8.59E-04,-69.107285,33.6593,-98.7434
8193,0.07302001,-0.13167544,9.626671,2.79E-04,-6.11E-04,8.59E-04,-67.70351,34.84145,-98.14115
8208,0.10414329,-0.13526659,9.623079,-3.32E-04,-3.05E-04,-0.001278999,-67.70351,34.84145,-98.14115
8210,0.10414329,-0.13526659,9.623079,-3.32E-04,-3.05E-04,-0.001278999,-68.34569,33.972816,-99.82688
8229,0.106537394,-0.11970494,9.644627,2.79E-04,-9.16E-04,-3.63E-04,-68.34569,33.972816,-99.82688
8231,0.106537394,-0.11970494,9.644627,2.79E-04,-9.16E-04,-3.63E-04,-68.05461,33.258446,-99.06138
8248,0.11012854,-0.12449314,9.641035,2.79E-04,-9.16E-04,-3.63E-04,-68.05461,33.258446,-99.06138
8249,0.11012854,-0.12449314,9.641035,8.90E-04,6.11E-04,-3.63E-04,-68.05461,33.258446,-99.06138
8251,0.11012854,-0.12449314,9.641035,8.90E-04,6.11E-04,-3.63E-04,-68.490585,33.815723,-98.134224
8263,0.11012854,-0.12449314,9.641035,8.90E-04,6.11E-04,-3.63E-04,-68.490585,33.815723,-98.134224
8269,0.0945669,-0.13406953,9.639839,-3.32E-04,3.05E-04,0.00116446,-68.490585,33.815723,-98.134224
8271,0.0945669,-0.13406953,9.639839,-3.32E-04,3.05E-04,0.00116446,-68.47481,34.829754,-99.6713
8288,0.08977871,-0.11970494,9.630262,-2.67E-05,-6.11E-04,2.48E-04,-68.47481,34.829754,-99.6713
8291,0.08977871,-0.11970494,9.630262,-2.67E-05,-6.11E-04,2.48E-04,-68.47179,34.827187,-99.210045
8308,0.094566904,-0.13885774,9.627868,-6.38E-04,-6.11E-04,-9.74E-04,-68.47179,34.827187,-99.210045
8310,0.094566904,-0.13885774,9.627868,-6.38E-04,-6.11E-04,-9.74E-04,-68.47713,34.538197,-98.90267
8328,0.080202304,-0.11850789,9.668568,-6.38E-04,-6.11E-04,-9.74E-04,-68.47713,34.538197,-98.90267
8330,0.080202304,-0.11850789,9.668568,0.001805869,0.001832594,-5.73E-05,-68.47713,34.538197,-98.90267
8344,0.080202304,-0.11850789,9.668568,0.001805869,0.001832594,-5.73E-05,-68.47713,34.538197,-98.90267
