time,aX,aY,aZ,wX,wY,wZ,mX,mY,mZ
563932986913073,0.22818199,-0.040747203,9.804603,0.0013591739,7.406735E-4,7.673991E-4,20.877335,-0.79556274,-38.204185
563932987999532,0.23177314,-0.038353108,9.809391,0.0013591739,7.406735E-4,7.673991E-4,20.877335,-0.79556274,-38.204185
563933002717605,0.23177314,-0.038353108,9.809391,1.3744447E-4,7.406735E-4,7.673991E-4,20.877335,-0.79556274,-38.204185
563933006913073,0.23177314,-0.038353108,9.809391,1.3744447E-4,7.406735E-4,7.673991E-4,21.02517,-0.37034607,-38.335777
563933007623125,0.23416725,-0.043141305,9.8058,1.3744447E-4,7.406735E-4,7.673991E-4,21.02517,-0.37034607,-38.335777
563933022340365,0.23416725,-0.043141305,9.8058,-4.7342025E-4,0.0013515382,7.673991E-4,21.02517,-0.37034607,-38.335777
563933026913073,0.23416725,-0.043141305,9.8058,-4.7342025E-4,0.0013515382,7.673991E-4,20.72123,0.045394897,-38.64791
563933027246667,0.23177314,-0.03715606,9.801012,-4.7342025E-4,0.0013515382,7.673991E-4,20.72123,0.045394897,-38.64791
563933041964740,0.23177314,-0.03715606,9.801012,1.3744447E-4,1.2980876E-4,7.673991E-4,20.72123,0.045394897,-38.64791
563933046913073,0.23177314,-0.03715606,9.801012,1.3744447E-4,1.2980876E-4,7.673991E-4,21.719795,-0.7548218,-40.948586
563933046870261,0.2305761,-0.0383531,9.808193,1.3744447E-4,1.2980876E-4,7.673991E-4,21.719795,-0.7548218,-40.948586
563933061587553,0.2305761,-0.0383531,9.808193,7.483092E-4,7.406735E-4,1.5653437E-4,21.719795,-0.7548218,-40.948586
563933066913073,0.2305761,-0.0383531,9.808193,7.483092E-4,7.406735E-4,1.5653437E-4,20.8377,0.6936035,-40.40081
563933066493855,0.2377584,-0.03356491,9.808194,7.483092E-4,7.406735E-4,1.5653437E-4,20.8377,0.6936035,-40.40081
563933081211875,0.2377584,-0.03356491,9.808194,7.483092E-4,7.406735E-4,7.673991E-4,20.8377,0.6936035,-40.40081
563933086913073,0.2377584,-0.03356491,9.808194,7.483092E-4,7.406735E-4,7.673991E-4,21.622253,-1.5081177,-38.221123
563933086117396,0.22937904,-0.03715606,9.8057995,7.483092E-4,7.406735E-4,7.673991E-4,21.622253,-1.5081177,-38.221123
563933100834688,0.22937904,-0.03715606,9.8057995,1.3744447E-4,7.406735E-4,7.673991E-4,21.622253,-1.5081177,-38.221123
563933106913073,0.22937904,-0.03715606,9.8057995,1.3744447E-4,7.406735E-4,7.673991E-4,21.28759,-1.5806732,-40.03527
563933105740990,0.2305761,-0.032367855,9.814179,1.3744447E-4,7.406735E-4,7.673991E-4,21.28759,-1.5806732,-40.03527
563933120459063,0.2305761,-0.032367855,9.814179,1.3744447E-4,7.406735E-4,1.5653437E-4,21.28759,-1.5806732,-40.03527
563933126913073,0.2305761,-0.032367855,9.814179,1.3744447E-4,7.406735E-4,1.5653437E-4,22.490013,-0.704834,-39.77349
563933125364584,0.2257879,-0.032367855,9.810589,1.3744447E-4,7.406735E-4,1.5653437E-4,22.490013,-0.704834,-39.77349
563933140081823,0.2257879,-0.032367855,9.810589,7.483092E-4,0.0019624028,7.673991E-4,22.490013,-0.704834,-39.77349
563933146913073,0.2257879,-0.032367855,9.810589,7.483092E-4,0.0019624028,7.673991E-4,20.706818,-1.2656708,-39.219994
563933144988125,0.23536429,-0.043141305,9.810589,7.483092E-4,0.0019624028,7.673991E-4,20.706818,-1.2656708,-39.219994
563933159706250,0.23536429,-0.043141305,9.810589,0.0013591739,0.0019624028,7.673991E-4,20.706818,-1.2656708,-39.219994
563933166913073,0.23536429,-0.043141305,9.810589,0.0013591739,0.0019624028,7.673991E-4,22.546555,0.68951416,-37.070488
563933164611771,0.21860561,-0.039550155,9.816573,0.0013591739,0.0019624028,7.673991E-4,22.546555,0.68951416,-37.070488
563933179329011,0.21860561,-0.039550155,9.816573,1.3744447E-4,0.0025732676,7.673991E-4,22.546555,0.68951416,-37.070488
563933186913073,0.21860561,-0.039550155,9.816573,1.3744447E-4,0.0025732676,7.673991E-4,21.438438,0.5605774,-40.22367
563933184235313,0.22937904,-0.027579658,9.796223,1.3744447E-4,0.0025732676,7.673991E-4,21.438438,0.5605774,-40.22367
563933198953386,0.22937904,-0.027579658,9.796223,7.483092E-4,1.2980876E-4,1.5653437E-4,21.438438,0.5605774,-40.22367
563933206913073,0.22937904,-0.027579658,9.796223,7.483092E-4,1.2980876E-4,1.5653437E-4,20.07042,-1.203125,-41.20022
563933203858907,0.22818199,-0.041944258,9.811786,7.483092E-4,1.2980876E-4,1.5653437E-4,20.07042,-1.203125,-41.20022
563933218576198,0.22818199,-0.041944258,9.811786,0.0013591739,0.0013515382,7.673991E-4,20.07042,-1.203125,-41.20022
563933226913073,0.22818199,-0.041944258,9.811786,0.0013591739,0.0013515382,7.673991E-4,19.521423,-0.11274719,-38.86506
563933223482500,0.23177314,-0.035959005,9.806997,0.0013591739,0.0013515382,7.673991E-4,19.521423,-0.11274719,-38.86506
563933238200573,0.23177314,-0.035959005,9.806997,-4.7342025E-4,7.406735E-4,1.5653437E-4,19.521423,-0.11274719,-38.86506
563933246913073,0.23177314,-0.035959005,9.806997,-4.7342025E-4,7.406735E-4,1.5653437E-4,20.560326,0.44934082,-39.282326
563933243106094,0.23416725,-0.043141298,9.802209,-4.7342025E-4,7.406735E-4,1.5653437E-4,20.560326,0.44934082,-39.282326
563933257823334,0.23416725,-0.043141298,9.802209,7.483092E-4,7.406735E-4,1.5653437E-4,20.560326,0.44934082,-39.282326
563933266913073,0.23416725,-0.043141298,9.802209,7.483092E-4,7.406735E-4,1.5653437E-4,21.44712,0.2927246,-39.74978
563933262729636,0.22818199,-0.040747203,9.809391,7.483092E-4,7.406735E-4,1.5653437E-4,21.44712,0.2927246,-39.74978
563933277447761,0.22818199,-0.040747203,9.809391,7.483092E-4,1.2980876E-4,1.5653437E-4,21.44712,0.2927246,-39.74978
563933286913073,0.22818199,-0.040747203,9.809391,7.483092E-4,1.2980876E-4,1.5653437E-4,20.8583,0.1643219,-39.2891
563933282353282,0.23416725,-0.035959005,9.814179,7.483092E-4,1.2980876E-4,1.5653437E-4,20.8583,0.1643219,-39.2891
563933297070521,0.23416725,-0.035959005,9.814179,-4.7342025E-4,0.0019624028,7.673991E-4,20.8583,0.1643219,-39.2891
563933306913073,0.23416725,-0.035959005,9.814179,-4.7342025E-4,0.0019624028,7.673991E-4,21.295631,-1.1372528,-39.680656
563933301976823,0.2305761,-0.037156053,9.8058,-4.7342025E-4,0.0019624028,7.673991E-4,21.295631,-1.1372528,-39.680656
563933316694896,0.2305761,-0.037156053,9.8058,7.483092E-4,1.2980876E-4,-4.5433035E-4,21.295631,-1.1372528,-39.680656
563933321600417,0.2305761,-0.035959005,9.803406,7.483092E-4,1.2980876E-4,-4.5433035E-4,21.295631,-1.1372528,-39.680656
563933326913073,0.2305761,-0.035959005,9.803406,7.483092E-4,1.2980876E-4,-4.5433035E-4,20.997566,0.0025939941,-39.78425
563933336317709,0.2305761,-0.035959005,9.803406,7.483092E-4,0.0025732676,0.0019891285,20.997566,0.0025939941,-39.78425
563933341224011,0.2257879,-0.039550155,9.811785,7.483092E-4,0.0025732676,0.0019891285,20.997566,0.0025939941,-39.78425
563933346913073,0.2257879,-0.039550155,9.811785,7.483092E-4,0.0025732676,0.0019891285,19.815216,-1.5460663,-38.943245
563933355942084,0.2257879,-0.039550155,9.811785,1.3744447E-4,7.406735E-4,7.673991E-4,19.815216,-1.5460663,-38.943245
563933360847605,0.22818199,-0.035959005,9.795027,1.3744447E-4,7.406735E-4,7.673991E-4,19.815216,-1.5460663,-38.943245
563933366913073,0.22818199,-0.035959005,9.795027,1.3744447E-4,7.406735E-4,7.673991E-4,21.273247,0.671051,-41.039864
563933375564896,0.22818199,-0.035959005,9.795027,-4.7342025E-4,1.2980876E-4,7.673991E-4,21.273247,0.671051,-41.039864
563933386913073,0.22818199,-0.035959005,9.795027,-4.7342025E-4,1.2980876E-4,7.673991E-4,21.459038,0.031295776,-39.11196
563933380471198,0.2305761,-0.039550148,9.816574,-4.7342025E-4,1.2980876E-4,7.673991E-4,21.459038,0.031295776,-39.11196
563933395189271,0.2305761,-0.039550148,9.816574,7.483092E-4,0.0013515382,1.5653437E-4,21.459038,0.031295776,-39.11196
563933400094792,0.2257879,-0.040747195,9.81777,7.483092E-4,0.0013515382,1.5653437E-4,21.459038,0.031295776,-39.11196
563933406913073,0.2257879,-0.040747195,9.81777,7.483092E-4,0.0013515382,1.5653437E-4,20.585625,1.2118835,-38.090294
563933414812084,0.2257879,-0.040747195,9.81777,-4.7342025E-4,1.2980876E-4,1.5653437E-4,20.585625,1.2118835,-38.090294
563933419718386,0.2257879,-0.03715606,9.809391,-4.7342025E-4,1.2980876E-4,1.5653437E-4,20.585625,1.2118835,-38.090294
563933426913073,0.2257879,-0.03715606,9.809391,-4.7342025E-4,1.2980876E-4,1.5653437E-4,21.26751,-0.9078522,-41.138054
563933434436459,0.2257879,-0.03715606,9.809391,7.483092E-4,0.0013515382,1.5653437E-4,21.26751,-0.9078522,-41.138054
563933439341980,0.23416725,-0.04194425,9.8058,7.483092E-4,0.0013515382,1.5653437E-4,21.26751,-0.9078522,-41.138054
563933446913073,0.23416725,-0.04194425,9.8058,7.483092E-4,0.0013515382,1.5653437E-4,21.735367,-0.011505127,-40.2483
563933454059271,0.23416725,-0.04194425,9.8058,0.0013591739,0.0013515382,0.0013782638,21.735367,-0.011505127,-40.2483
563933458965573,0.2257879,-0.032367855,9.808194,0.0013591739,0.0013515382,0.0013782638,21.735367,-0.011505127,-40.2483
563933466913073,0.2257879,-0.032367855,9.808194,0.0013591739,0.0013515382,0.0013782638,20.09311,-1.1582642,-40.052803
563933473683646,0.2257879,-0.032367855,9.808194,1.3744447E-4,0.0013515382,7.673991E-4,20.09311,-1.1582642,-40.052803
563933478589167,0.22698495,-0.04074721,9.804604,1.3744447E-4,0.0013515382,7.673991E-4,20.09311,-1.1582642,-40.052803
563933486913073,0.22698495,-0.04074721,9.804604,1.3744447E-4,0.0013515382,7.673991E-4,19.817825,-0.8283844,-38.898613
563933493306459,0.22698495,-0.04074721,9.804604,0.0013591739,0.0019624028,0.0013782638,19.817825,-0.8283844,-38.898613
563933498212761,0.23177314,-0.032367855,9.806997,0.0013591739,0.0019624028,0.0013782638,19.817825,-0.8283844,-38.898613
563933506913073,0.23177314,-0.032367855,9.806997,0.0013591739,0.0019624028,0.0013782638,19.97393,-1.6693573,-38.454887
563933512930834,0.23177314,-0.032367855,9.806997,1.3744447E-4,0.0013515382,-4.5433035E-4,19.97393,-1.6693573,-38.454887
563933517836355,0.2257879,-0.04074721,9.814179,1.3744447E-4,0.0013515382,-4.5433035E-4,19.97393,-1.6693573,-38.454887
563933526913073,0.2257879,-0.04074721,9.814179,1.3744447E-4,0.0013515382,-4.5433035E-4,21.30577,-0.11967468,-39.290337
563933532553646,0.2257879,-0.04074721,9.814179,7.483092E-4,0.0019624028,7.673991E-4,21.30577,-0.11967468,-39.290337
563933537459948,0.2257879,-0.035959005,9.810588,7.483092E-4,0.0019624028,7.673991E-4,21.30577,-0.11967468,-39.290337
563933546913073,0.2257879,-0.035959005,9.810588,7.483092E-4,0.0019624028,7.673991E-4,20.98523,-0.73431396,-40.320625
563933552178021,0.2257879,-0.035959005,9.810588,7.483092E-4,0.0019624028,7.673991E-4,20.98523,-0.73431396,-40.320625
563933557083542,0.22937904,-0.028776705,9.804604,7.483092E-4,0.0019624028,7.673991E-4,20.98523,-0.73431396,-40.320625
563933566913073,0.22937904,-0.028776705,9.804604,7.483092E-4,0.0019624028,7.673991E-4,20.864365,-0.8211975,-38.85984
563933571800834,0.22937904,-0.028776705,9.804604,7.483092E-4,7.406735E-4,0.0013782638,20.864365,-0.8211975,-38.85984
563933576707136,0.2257879,-0.037156053,9.803406,7.483092E-4,7.406735E-4,0.0013782638,20.864365,-0.8211975,-38.85984
563933586913073,0.2257879,-0.037156053,9.803406,7.483092E-4,7.406735E-4,0.0013782638,20.705025,0.01335144,-39.46749
563933591425261,0.2257879,-0.037156053,9.803406,1.3744447E-4,0.0013515382,1.5653437E-4,20.705025,0.01335144,-39.46749
563933596330782,0.23177314,-0.034761958,9.799815,1.3744447E-4,0.0013515382,1.5653437E-4,20.705025,0.01335144,-39.46749
563933606913073,0.23177314,-0.034761958,9.799815,1.3744447E-4,0.0013515382,1.5653437E-4,20.42714,-0.37445068,-38.357933
563933611048021,0.23177314,-0.034761958,9.799815,-4.7342025E-4,7.406735E-4,-4.5433035E-4,20.42714,-0.37445068,-38.357933
563933615954323,0.22459084,-0.03476195,9.803406,-4.7342025E-4,7.406735E-4,-4.5433035E-4,20.42714,-0.37445068,-38.357933
563933626913073,0.22459084,-0.03476195,9.803406,-4.7342025E-4,7.406735E-4,-4.5433035E-4,20.707863,-0.9785919,-39.20214
563933630672448,0.22459084,-0.03476195,9.803406,1.3744447E-4,7.406735E-4,7.673991E-4,20.707863,-0.9785919,-39.20214
563933635577969,0.23177314,-0.0311708,9.801011,1.3744447E-4,7.406735E-4,7.673991E-4,20.707863,-0.9785919,-39.20214
563933646913073,0.23177314,-0.0311708,9.801011,1.3744447E-4,7.406735E-4,7.673991E-4,21.771652,-0.6522827,-38.325935
563933650295261,0.23177314,-0.0311708,9.801011,1.3744447E-4,0.0019624028,7.673991E-4,21.771652,-0.6522827,-38.325935
563933655201563,0.2377584,-0.0383531,9.808194,1.3744447E-4,0.0019624028,7.673991E-4,21.771652,-0.6522827,-38.325935
563933666913073,0.2377584,-0.0383531,9.808194,1.3744447E-4,0.0019624028,7.673991E-4,22.06678,0.054626465,-38.59806
563933669919636,0.2377584,-0.0383531,9.808194,0.0013591739,0.0019624028,1.5653437E-4,22.06678,0.054626465,-38.59806
563933674825157,0.2257879,-0.02997376,9.803406,0.0013591739,0.0019624028,1.5653437E-4,22.06678,0.054626465,-38.59806
563933686913073,0.2257879,-0.02997376,9.803406,0.0013591739,0.0019624028,1.5653437E-4,21.006874,-0.976532,-39.191063
563933689542448,0.2257879,-0.02997376,9.803406,7.483092E-4,0.0013515382,1.5653437E-4,21.006874,-0.976532,-39.191063
563933694448750,0.23536429,-0.041944258,9.803406,7.483092E-4,0.0013515382,1.5653437E-4,21.006874,-0.976532,-39.191063
563933706913073,0.23536429,-0.041944258,9.803406,7.483092E-4,0.0013515382,1.5653437E-4,19.934814,-0.036636353,-40.6426
563933709166823,0.23536429,-0.041944258,9.803406,7.483092E-4,1.2980876E-4,7.673991E-4,19.934814,-0.036636353,-40.6426
563933714072344,0.2305761,-0.044338353,9.809391,7.483092E-4,1.2980876E-4,7.673991E-4,19.934814,-0.036636353,-40.6426
563933726913073,0.2305761,-0.044338353,9.809391,7.483092E-4,1.2980876E-4,7.673991E-4,20.706818,-1.2656708,-39.219994
563933728789636,0.2305761,-0.044338353,9.809391,7.483092E-4,7.406735E-4,7.673991E-4,20.706818,-1.2656708,-39.219994
563933733695938,0.22937904,-0.035959005,9.796225,7.483092E-4,7.406735E-4,7.673991E-4,20.706818,-1.2656708,-39.219994
563933746913073,0.22937904,-0.035959005,9.796225,7.483092E-4,7.406735E-4,7.673991E-4,22.336739,-0.85580444,-39.951866
563933748414063,0.22937904,-0.035959005,9.796225,1.3744447E-4,7.406735E-4,1.5653437E-4,22.336739,-0.85580444,-39.951866
563933753319584,0.2329702,-0.041944258,9.802209,1.3744447E-4,7.406735E-4,1.5653437E-4,22.336739,-0.85580444,-39.951866
563933766913073,0.2329702,-0.041944258,9.802209,1.3744447E-4,7.406735E-4,1.5653437E-4,22.041489,-0.70791626,-39.790108
563933768036875,0.2329702,-0.041944258,9.802209,7.483092E-4,0.0013515382,7.673991E-4,22.041489,-0.70791626,-39.790108
563933772943178,0.22818199,-0.035959005,9.804603,7.483092E-4,0.0013515382,7.673991E-4,22.041489,-0.70791626,-39.790108
563933787661250,0.22818199,-0.035959005,9.804603,1.3744447E-4,0.0013515382,1.5653437E-4,22.041489,-0.70791626,-39.790108
563933786913073,0.22818199,-0.035959005,9.804603,1.3744447E-4,0.0013515382,1.5653437E-4,20.707863,-0.9785919,-39.20214
563933792566771,0.22818199,-0.04074721,9.810588,1.3744447E-4,0.0013515382,1.5653437E-4,20.707863,-0.9785919,-39.20214
563933806913073,0.22818199,-0.04074721,9.810588,1.3744447E-4,0.0013515382,1.5653437E-4,21.614502,-0.09840393,-38.787514
563933807284063,0.22818199,-0.04074721,9.810588,-4.7342025E-4,1.2980876E-4,7.673991E-4,21.614502,-0.09840393,-38.787514
563933812190365,0.22459085,-0.039550155,9.801012,-4.7342025E-4,1.2980876E-4,7.673991E-4,21.614502,-0.09840393,-38.787514
563933826913073,0.22459085,-0.039550155,9.801012,-4.7342025E-4,1.2980876E-4,7.673991E-4,20.99778,-1.7070312,-39.56353
563933826908490,0.22459085,-0.039550155,9.801012,0.0013591739,7.406735E-4,7.673991E-4,20.99778,-1.7070312,-39.56353
563933831814011,0.23177314,-0.028776705,9.815376,0.0013591739,7.406735E-4,7.673991E-4,20.99778,-1.7070312,-39.56353
563933846531303,0.23177314,-0.028776705,9.815376,7.483092E-4,7.406735E-4,7.673991E-4,20.99778,-1.7070312,-39.56353
563933846913073,0.23177314,-0.028776705,9.815376,7.483092E-4,7.406735E-4,7.673991E-4,21.600388,0.44369507,-39.57139
563933851437605,0.23177314,-0.043141305,9.808193,7.483092E-4,7.406735E-4,7.673991E-4,21.600388,0.44369507,-39.57139
563933866155678,0.23177314,-0.043141305,9.808193,7.483092E-4,0.0013515382,0.0019891285,21.600388,0.44369507,-39.57139
563933866913073,0.23177314,-0.043141305,9.808193,7.483092E-4,0.0013515382,0.0019891285,21.324806,-1.0795746,-38.20542
563933871061198,0.2305761,-0.033564903,9.7974205,7.483092E-4,0.0013515382,0.0019891285,21.324806,-1.0795746,-38.20542
563933885778490,0.2305761,-0.033564903,9.7974205,1.3744447E-4,7.406735E-4,7.673991E-4,21.324806,-1.0795746,-38.20542
563933886913073,0.2305761,-0.033564903,9.7974205,1.3744447E-4,7.406735E-4,7.673991E-4,21.295631,-1.1372528,-39.680656
563933890684792,0.22459084,-0.034761958,9.814179,1.3744447E-4,7.406735E-4,7.673991E-4,21.295631,-1.1372528,-39.680656
563933905402917,0.22459084,-0.034761958,9.814179,1.3744447E-4,7.406735E-4,7.673991E-4,21.295631,-1.1372528,-39.680656
563933906913073,0.22459084,-0.034761958,9.814179,1.3744447E-4,7.406735E-4,7.673991E-4,21.005829,-1.2636108,-39.208916
563933910308438,0.2257879,-0.047929496,9.7974205,1.3744447E-4,7.406735E-4,7.673991E-4,21.005829,-1.2636108,-39.208916
563933925025730,0.2257879,-0.047929496,9.7974205,7.483092E-4,0.0019624028,7.673991E-4,21.005829,-1.2636108,-39.208916
563933926913073,0.2257879,-0.047929496,9.7974205,7.483092E-4,0.0019624028,7.673991E-4,21.910912,-0.8140259,-38.821068
563933929932032,0.2257879,-0.040747195,9.799815,7.483092E-4,0.0019624028,7.673991E-4,21.910912,-0.8140259,-38.821068
563933944650105,0.2257879,-0.040747195,9.799815,7.483092E-4,1.2980876E-4,1.5653437E-4,21.910912,-0.8140259,-38.821068
563933946913073,0.2257879,-0.040747195,9.799815,7.483092E-4,1.2980876E-4,1.5653437E-4,22.049011,-0.40803528,-39.44442
563933949555625,0.23416725,-0.033564903,9.814178,7.483092E-4,1.2980876E-4,1.5653437E-4,22.049011,-0.40803528,-39.44442
563933964272917,0.23416725,-0.033564903,9.814178,1.3744447E-4,7.406735E-4,0.0013782638,22.049011,-0.40803528,-39.44442
563933966913073,0.23416725,-0.033564903,9.814178,1.3744447E-4,7.406735E-4,0.0013782638,21.430916,0.26068115,-40.56936
563933969179219,0.2305761,-0.039550155,9.8058,1.3744447E-4,7.406735E-4,0.0013782638,21.430916,0.26068115,-40.56936
563933983897344,0.2305761,-0.039550155,9.8058,1.3744447E-4,0.0013515382,7.673991E-4,21.430916,0.26068115,-40.56936
563933986913073,0.2305761,-0.039550155,9.8058,1.3744447E-4,0.0013515382,7.673991E-4,21.732758,-0.729187,-40.29293
563933988802865,0.2233938,-0.046732455,9.801012,1.3744447E-4,0.0013515382,7.673991E-4,21.732758,-0.729187,-40.29293
563934003520157,0.2233938,-0.046732455,9.801012,1.3744447E-4,7.406735E-4,1.5653437E-4,21.732758,-0.729187,-40.29293
563934006913073,0.2233938,-0.046732455,9.801012,1.3744447E-4,7.406735E-4,1.5653437E-4,19.653053,0.28042603,-39.816246
563934008426459,0.22937904,-0.039550155,9.8057995,1.3744447E-4,7.406735E-4,1.5653437E-4,19.653053,0.28042603,-39.816246
563934023144584,0.22937904,-0.039550155,9.8057995,1.3744447E-4,7.406735E-4,7.673991E-4,19.653053,0.28042603,-39.816246
563934026913073,0.22937904,-0.039550155,9.8057995,1.3744447E-4,7.406735E-4,7.673991E-4,21.446075,0.0056610107,-39.76763
563934028050105,0.2257879,-0.046732448,9.804604,1.3744447E-4,7.406735E-4,7.673991E-4,21.446075,0.0056610107,-39.76763
563934042767396,0.2257879,-0.046732448,9.804604,0.0013591739,0.0019624028,7.673991E-4,21.446075,0.0056610107,-39.76763
563934046913073,0.2257879,-0.046732448,9.804604,0.0013591739,0.0019624028,7.673991E-4,21.438438,0.5605774,-40.22367
563934047673698,0.2305761,-0.032367855,9.804604,0.0013591739,0.0019624028,7.673991E-4,21.438438,0.5605774,-40.22367
563934062391823,0.2305761,-0.032367855,9.804604,7.483092E-4,0.0013515382,7.673991E-4,21.438438,0.5605774,-40.22367
563934066913073,0.2305761,-0.032367855,9.804604,7.483092E-4,0.0013515382,7.673991E-4,21.006126,0.5895386,-39.420708
563934067297344,0.22459084,-0.040747203,9.809391,7.483092E-4,0.0013515382,7.673991E-4,21.006126,0.5895386,-39.420708
563934082014636,0.22459084,-0.040747203,9.809391,-4.7342025E-4,7.406735E-4,1.5653437E-4,21.006126,0.5895386,-39.420708
563934086913073,0.22459084,-0.040747203,9.809391,-4.7342025E-4,7.406735E-4,1.5653437E-4,20.570045,0.4685669,-38.79058
563934086920938,0.22698495,-0.04433836,9.802209,-4.7342025E-4,7.406735E-4,1.5653437E-4,20.570045,0.4685669,-38.79058
563934101639063,0.22698495,-0.04433836,9.802209,7.483092E-4,1.2980876E-4,1.5653437E-4,20.570045,0.4685669,-38.79058
563934106913073,0.22698495,-0.04433836,9.802209,7.483092E-4,1.2980876E-4,1.5653437E-4,21.594955,0.71795654,-39.88137
563934106544584,0.23177314,-0.039550155,9.796223,7.483092E-4,1.2980876E-4,1.5653437E-4,21.594955,0.71795654,-39.88137
563934121261875,0.23177314,-0.039550155,9.796223,7.483092E-4,0.0013515382,0.0013782638,21.594955,0.71795654,-39.88137
563934126913073,0.23177314,-0.039550155,9.796223,7.483092E-4,0.0013515382,0.0013782638,20.104286,0.1463623,-39.64463
563934126168178,0.2257879,-0.043141305,9.808194,7.483092E-4,0.0013515382,0.0013782638,20.104286,0.1463623,-39.64463
563934140886250,0.2257879,-0.043141305,9.808194,1.3744447E-4,0.0013515382,0.0013782638,20.104286,0.1463623,-39.64463
563934146913073,0.2257879,-0.043141305,9.808194,1.3744447E-4,0.0013515382,0.0013782638,21.428307,-0.45700073,-40.61399
563934145791771,0.22937904,-0.032367855,9.7974205,1.3744447E-4,0.0013515382,0.0013782638,21.428307,-0.45700073,-40.61399
563934160509115,0.22937904,-0.032367855,9.7974205,1.3744447E-4,7.406735E-4,0.0013782638,21.428307,-0.45700073,-40.61399
563934166913073,0.22937904,-0.032367855,9.7974205,1.3744447E-4,7.406735E-4,0.0013782638,21.736412,0.27555847,-40.230446
563934165415417,0.22818199,-0.035959005,9.796223,1.3744447E-4,7.406735E-4,0.0013782638,21.736412,0.27555847,-40.230446
563934180133490,0.22818199,-0.035959005,9.796223,0.0013591739,7.406735E-4,-4.5433035E-4,21.736412,0.27555847,-40.230446
563934186913073,0.22818199,-0.035959005,9.796223,0.0013591739,7.406735E-4,-4.5433035E-4,21.620987,-0.08558655,-38.45968
563934185039011,0.23536429,-0.035959005,9.796223,0.0013591739,7.406735E-4,-4.5433035E-4,21.620987,-0.08558655,-38.45968
563934199756355,0.23536429,-0.035959005,9.796223,1.3744447E-4,0.0013515382,7.673991E-4,21.620987,-0.08558655,-38.45968
563934206913073,0.23536429,-0.035959005,9.796223,1.3744447E-4,0.0013515382,7.673991E-4,20.712555,0.31323242,-39.121803
563934204662657,0.22219674,-0.032367855,9.799815,1.3744447E-4,0.0013515382,7.673991E-4,20.712555,0.31323242,-39.121803
563934219380730,0.22219674,-0.032367855,9.799815,0.0013591739,0.0025732676,7.673991E-4,20.712555,0.31323242,-39.121803
563934226913073,0.22219674,-0.032367855,9.799815,0.0013591739,0.0025732676,7.673991E-4,21.752617,0.30760193,-39.410866
563934224286250,0.2305761,-0.037156053,9.801012,0.0013591739,0.0025732676,7.673991E-4,21.752617,0.30760193,-39.410866
563934239003594,0.2305761,-0.037156053,9.801012,1.3744447E-4,1.2980876E-4,-4.5433035E-4,21.752617,0.30760193,-39.410866
563934243909896,0.2233938,-0.041944258,9.801012,1.3744447E-4,1.2980876E-4,-4.5433035E-4,21.752617,0.30760193,-39.410866
563934246913073,0.2233938,-0.041944258,9.801012,1.3744447E-4,1.2980876E-4,-4.5433035E-4,21.440002,0.9911804,-40.19689
563934258627969,0.2233938,-0.041944258,9.801012,1.3744447E-4,0.0013515382,7.673991E-4,21.440002,0.9911804,-40.19689
563934266913073,0.2233938,-0.041944258,9.801012,1.3744447E-4,0.0013515382,7.673991E-4,21.296677,-0.85017395,-39.662804
563934263533490,0.22818199,-0.043141305,9.798618,1.3744447E-4,0.0013515382,7.673991E-4,21.296677,-0.85017395,-39.662804
563934278250834,0.22818199,-0.043141305,9.798618,7.483092E-4,7.406735E-4,7.673991E-4,21.296677,-0.85017395,-39.662804
563934286913073,0.22818199,-0.043141305,9.798618,7.483092E-4,7.406735E-4,7.673991E-4,20.714973,-1.6770477,-38.755028
563934283157136,0.23177314,-0.039550155,9.799814,7.483092E-4,7.406735E-4,7.673991E-4,20.714973,-1.6770477,-38.755028
563934297875209,0.23177314,-0.039550155,9.799814,7.483092E-4,0.0013515382,7.673991E-4,20.714973,-1.6770477,-38.755028
563934306913073,0.23177314,-0.039550155,9.799814,7.483092E-4,0.0013515382,7.673991E-4,20.43444,1.6350555,-38.232964
563934302780730,0.23536429,-0.037156053,9.812983,7.483092E-4,0.0013515382,7.673991E-4,20.43444,1.6350555,-38.232964
563934317498073,0.23536429,-0.037156053,9.812983,7.483092E-4,0.0013515382,0.0013782638,20.43444,1.6350555,-38.232964
563934326913073,0.23536429,-0.037156053,9.812983,7.483092E-4,0.0013515382,0.0013782638,20.866974,-0.103530884,-38.81521
563934322404375,0.23536429,-0.037156053,9.793829,7.483092E-4,0.0013515382,0.0013782638,20.866974,-0.103530884,-38.81521
563934337122448,0.23536429,-0.037156053,9.793829,1.3744447E-4,7.406735E-4,-4.5433035E-4,20.866974,-0.103530884,-38.81521
563934346913073,0.23536429,-0.037156053,9.793829,1.3744447E-4,7.406735E-4,-4.5433035E-4,20.99965,0.5767212,-39.748543
563934342027969,0.2329702,-0.035959005,9.8058,1.3744447E-4,7.406735E-4,-4.5433035E-4,20.99965,0.5767212,-39.748543
563934356745313,0.2329702,-0.035959005,9.8058,7.483092E-4,0.0019624028,7.673991E-4,20.99965,0.5767212,-39.748543
563934361651615,0.22937904,-0.034761958,9.815376,7.483092E-4,0.0019624028,7.673991E-4,20.99965,0.5767212,-39.748543
563934366913073,0.22937904,-0.034761958,9.815376,7.483092E-4,0.0019624028,7.673991E-4,20.7136,0.6003113,-39.10395
563934376369740,0.22937904,-0.034761958,9.815376,1.3744447E-4,0.0013515382,7.673991E-4,20.7136,0.6003113,-39.10395
563934381275261,0.23416723,-0.034761958,9.798617,1.3744447E-4,0.0013515382,7.673991E-4,20.7136,0.6003113,-39.10395
563934386913073,0.23416723,-0.034761958,9.798617,1.3744447E-4,0.0013515382,7.673991E-4,20.833,-0.5982208,-40.481148
563934395992553,0.23416723,-0.034761958,9.798617,1.3744447E-4,0.0013515382,7.673991E-4,20.833,-0.5982208,-40.481148
563934400898855,0.23536429,-0.040747203,9.803406,1.3744447E-4,0.0013515382,7.673991E-4,20.833,-0.5982208,-40.481148
563934406913073,0.23536429,-0.040747203,9.803406,1.3744447E-4,0.0013515382,7.673991E-4,18.913048,0.57518005,-39.498253
563934415616980,0.23536429,-0.040747203,9.803406,1.3744447E-4,7.406735E-4,1.5653437E-4,18.913048,0.57518005,-39.498253
563934420522500,0.23177314,-0.035959005,9.798618,1.3744447E-4,7.406735E-4,1.5653437E-4,18.913048,0.57518005,-39.498253
563934426913073,0.23177314,-0.035959005,9.798618,1.3744447E-4,7.406735E-4,1.5653437E-4,21.889267,-0.5718231,-39.95063
563934435239792,0.23177314,-0.035959005,9.798618,7.483092E-4,7.406735E-4,0.0013782638,21.889267,-0.5718231,-39.95063
563934446913073,0.23177314,-0.035959005,9.798618,7.483092E-4,7.406735E-4,0.0013782638,20.10794,1.151123,-39.582146
563934440146094,0.22459084,-0.0383531,9.801011,7.483092E-4,7.406735E-4,0.0013782638,20.10794,1.151123,-39.582146
563934454864219,0.22459084,-0.0383531,9.801011,7.483092E-4,7.406735E-4,7.673991E-4,20.10794,1.151123,-39.582146
563934459769740,0.22459084,-0.0311708,9.799814,7.483092E-4,7.406735E-4,7.673991E-4,20.10794,1.151123,-39.582146
563934466913073,0.22459084,-0.0311708,9.799814,7.483092E-4,7.406735E-4,7.673991E-4,20.400581,0.28555298,-39.78855
563934474487032,0.22459084,-0.0311708,9.799814,7.483092E-4,7.406735E-4,-4.5433035E-4,20.400581,0.28555298,-39.78855
563934479393386,0.23656134,-0.039550155,9.801012,7.483092E-4,7.406735E-4,-4.5433035E-4,20.400581,0.28555298,-39.78855
563934486913073,0.23656134,-0.039550155,9.801012,7.483092E-4,7.406735E-4,-4.5433035E-4,21.603218,-0.54823303,-39.306038
563934494111459,0.23656134,-0.039550155,9.801012,1.3744447E-4,0.0013515382,7.673991E-4,21.603218,-0.54823303,-39.306038
563934499016980,0.2305761,-0.043141305,9.796223,1.3744447E-4,0.0013515382,7.673991E-4,21.603218,-0.54823303,-39.306038
563934506913073,0.2305761,-0.043141305,9.796223,1.3744447E-4,0.0013515382,7.673991E-4,21.906929,0.74565125,-39.214622
563934513734323,0.2305761,-0.043141305,9.796223,7.483092E-4,7.406735E-4,-4.5433035E-4,21.906929,0.74565125,-39.214622
563934518640625,0.2305761,-0.039550148,9.7974205,7.483092E-4,7.406735E-4,-4.5433035E-4,21.906929,0.74565125,-39.214622
563934526913073,0.2305761,-0.039550148,9.7974205,7.483092E-4,7.406735E-4,-4.5433035E-4,19.369614,1.0216827,-39.12702
563934533358750,0.2305761,-0.039550148,9.7974205,7.483092E-4,0.0013515382,1.5653437E-4,19.369614,1.0216827,-39.12702
563934538264271,0.2329702,-0.044338353,9.804604,7.483092E-4,0.0013515382,1.5653437E-4,19.369614,1.0216827,-39.12702
563934546913073,0.2329702,-0.044338353,9.804604,7.483092E-4,0.0013515382,1.5653437E-4,20.987839,-0.01663208,-40.275993
563934552981563,0.2329702,-0.044338353,9.804604,7.483092E-4,0.0013515382,7.673991E-4,20.987839,-0.01663208,-40.275993
563934557887865,0.23416725,-0.028776705,9.7974205,7.483092E-4,0.0013515382,7.673991E-4,20.987839,-0.01663208,-40.275993
563934566913073,0.23416725,-0.028776705,9.7974205,7.483092E-4,0.0013515382,7.673991E-4,20.722275,0.3324585,-38.63006
563934572605990,0.23416725,-0.028776705,9.7974205,7.483092E-4,0.0013515382,7.673991E-4,20.722275,0.3324585,-38.63006
563934577511511,0.2329702,-0.044338353,9.8058,7.483092E-4,0.0013515382,7.673991E-4,20.722275,0.3324585,-38.63006
563934586913073,0.2329702,-0.044338353,9.8058,7.483092E-4,0.0013515382,7.673991E-4,19.765343,-0.21965027,-41.640556
563934592228855,0.2329702,-0.044338353,9.8058,0.0013591739,0.0025732676,0.0013782638,19.765343,-0.21965027,-41.640556
563934597135157,0.23416725,-0.039550155,9.803406,0.0013591739,0.0025732676,0.0013782638,19.765343,-0.21965027,-41.640556
563934606913073,0.23416725,-0.039550155,9.803406,0.0013591739,0.0025732676,0.0013782638,21.433739,-0.73124695,-40.30401
563934611853230,0.23416725,-0.039550155,9.803406,1.3744447E-4,0.0019624028,7.673991E-4,21.433739,-0.73124695,-40.30401
563934616758750,0.2257879,-0.04194425,9.808194,1.3744447E-4,0.0019624028,7.673991E-4,21.433739,-0.73124695,-40.30401
563934626913073,0.2257879,-0.04194425,9.808194,1.3744447E-4,0.0019624028,7.673991E-4,21.299286,-0.13249207,-39.61817
563934631476094,0.2257879,-0.04194425,9.808194,1.3744447E-4,0.0013515382,7.673991E-4,21.299286,-0.13249207,-39.61817
563934636382396,0.22698495,-0.03356491,9.796223,1.3744447E-4,0.0013515382,7.673991E-4,21.299286,-0.13249207,-39.61817
563934646913073,0.22698495,-0.03356491,9.796223,1.3744447E-4,0.0013515382,7.673991E-4,21.736412,0.27555847,-40.230446
563934651100521,0.22698495,-0.03356491,9.796223,1.3744447E-4,7.406735E-4,-4.5433035E-4,21.736412,0.27555847,-40.230446
563934656006042,0.22698495,-0.0311708,9.798617,1.3744447E-4,7.406735E-4,-4.5433035E-4,21.736412,0.27555847,-40.230446
563934666913073,0.22698495,-0.0311708,9.798617,1.3744447E-4,7.406735E-4,-4.5433035E-4,21.781784,0.36528015,-37.935616
563934670723334,0.22698495,-0.0311708,9.798617,7.483092E-4,7.406735E-4,7.673991E-4,21.781784,0.36528015,-37.935616
563934675629688,0.23416725,-0.043141305,9.808194,7.483092E-4,7.406735E-4,7.673991E-4,21.781784,0.36528015,-37.935616
563934686913073,0.23416725,-0.043141305,9.808194,7.483092E-4,7.406735E-4,7.673991E-4,20.402359,-0.993454,-39.541054
563934690347813,0.23416725,-0.043141305,9.808194,7.483092E-4,0.0013515382,1.5653437E-4,20.402359,-0.993454,-39.541054
563934695253334,0.22459084,-0.032367855,9.801012,7.483092E-4,0.0013515382,1.5653437E-4,20.402359,-0.993454,-39.541054
563934706913073,0.22459084,-0.032367855,9.801012,7.483092E-4,0.0013515382,1.5653437E-4,20.659653,-0.07637024,-41.762306
563934709970625,0.22459084,-0.032367855,9.801012,7.483092E-4,0.0013515382,7.673991E-4,20.659653,-0.07637024,-41.762306
563934714876928,0.2329702,-0.038353108,9.808194,7.483092E-4,0.0013515382,7.673991E-4,20.659653,-0.07637024,-41.762306
563934726913073,0.2329702,-0.038353108,9.808194,7.483092E-4,0.0013515382,7.673991E-4,22.48655,0.9983673,-40.15812
563934729595053,0.2329702,-0.038353108,9.808194,7.483092E-4,1.2980876E-4,-0.0010651951,22.48655,0.9983673,-40.15812
563934734500573,0.22937904,-0.034761958,9.793829,7.483092E-4,1.2980876E-4,-0.0010651951,22.48655,0.9983673,-40.15812
563934746913073,0.22937904,-0.034761958,9.793829,7.483092E-4,1.2980876E-4,-0.0010651951,21.592865,0.14379883,-39.917076
563934749217917,0.22937904,-0.034761958,9.793829,7.483092E-4,0.0013515382,0.0013782638,21.592865,0.14379883,-39.917076
563934754124219,0.22219676,-0.043141305,9.799814,7.483092E-4,0.0013515382,0.0013782638,21.592865,0.14379883,-39.917076
563934766913073,0.22219676,-0.043141305,9.799814,7.483092E-4,0.0013515382,0.0013782638,20.988884,0.27043152,-40.25814
563934768842344,0.22219676,-0.043141305,9.799814,0.0013591739,0.0019624028,7.673991E-4,20.988884,0.27043152,-40.25814
563934773747865,0.23177314,-0.038353108,9.798618,0.0013591739,0.0019624028,7.673991E-4,20.988884,0.27043152,-40.25814
563934786913073,0.23177314,-0.038353108,9.798618,0.0013591739,0.0019624028,7.673991E-4,20.820038,-0.6238556,-41.136818
563934788465157,0.23177314,-0.038353108,9.798618,7.483092E-4,1.2980876E-4,1.5653437E-4,20.820038,-0.6238556,-41.136818
563934793371459,0.22818199,-0.03476195,9.79383,7.483092E-4,1.2980876E-4,1.5653437E-4,20.820038,-0.6238556,-41.136818
563934806913073,0.22818199,-0.03476195,9.79383,7.483092E-4,1.2980876E-4,1.5653437E-4,20.539017,-1.872879,-40.08082
563934808089584,0.22818199,-0.03476195,9.79383,7.483092E-4,0.0013515382,0.0013782638,20.539017,-1.872879,-40.08082
563934812995105,0.22937904,-0.037156053,9.803406,7.483092E-4,0.0013515382,0.0013782638,20.539017,-1.872879,-40.08082
563934826913073,0.22937904,-0.037156053,9.803406,7.483092E-4,0.0013515382,0.0013782638,21.460083,0.31835938,-39.09411
563934827712448,0.22937904,-0.037156053,9.803406,7.483092E-4,7.406735E-4,-4.5433035E-4,21.460083,0.31835938,-39.09411
563934832618750,0.22937904,-0.04074721,9.799814,7.483092E-4,7.406735E-4,-4.5433035E-4,21.460083,0.31835938,-39.09411
563934846913073,0.22937904,-0.04074721,9.799814,7.483092E-4,7.406735E-4,-4.5433035E-4,21.324059,0.48651123,-38.43505
563934847336875,0.22937904,-0.04074721,9.799814,1.3744447E-4,1.2980876E-4,-4.5433035E-4,21.324059,0.48651123,-38.43505
563934852242396,0.22219674,-0.0455354,9.799814,1.3744447E-4,1.2980876E-4,-4.5433035E-4,21.324059,0.48651123,-38.43505
563934866913073,0.22219674,-0.0455354,9.799814,1.3744447E-4,1.2980876E-4,-4.5433035E-4,21.324059,0.48651123,-38.43505
563934866959740,0.22219674,-0.0455354,9.799814,1.3744447E-4,0.0013515382,7.673991E-4,21.324059,0.48651123,-38.43505
563934871866042,0.23536429,-0.03476195,9.7890415,1.3744447E-4,0.0013515382,7.673991E-4,21.324059,0.48651123,-38.43505
563934886913073,0.23536429,-0.03476195,9.7890415,1.3744447E-4,0.0013515382,7.673991E-4,21.457474,-0.3993225,-39.13874
563934886584167,0.23536429,-0.03476195,9.7890415,7.483092E-4,0.0013515382,7.673991E-4,21.457474,-0.3993225,-39.13874
563934891489688,0.22818199,-0.033564903,9.803406,7.483092E-4,0.0013515382,7.673991E-4,21.457474,-0.3993225,-39.13874
563934906206980,0.22818199,-0.033564903,9.803406,7.483092E-4,7.406735E-4,7.673991E-4,21.457474,-0.3993225,-39.13874
563934906913073,0.22818199,-0.033564903,9.803406,7.483092E-4,7.406735E-4,7.673991E-4,21.304207,-0.55029297,-39.317116
563934911113334,0.2257879,-0.035959005,9.795027,7.483092E-4,7.406735E-4,7.673991E-4,21.304207,-0.55029297,-39.317116
563934926913073,0.2257879,-0.035959005,9.795027,7.483092E-4,7.406735E-4,7.673991E-4,19.954674,1.0001526,-39.760536
563934925831407,0.2257879,-0.035959005,9.795027,7.483092E-4,1.2980876E-4,-4.5433035E-4,19.954674,1.0001526,-39.760536
563934930736928,0.2329702,-0.04194425,9.793829,7.483092E-4,1.2980876E-4,-4.5433035E-4,19.954674,1.0001526,-39.760536
563934945454271,0.2329702,-0.04194425,9.793829,1.3744447E-4,0.0013515382,7.673991E-4,19.954674,1.0001526,-39.760536
563934946913073,0.2329702,-0.04194425,9.793829,1.3744447E-4,0.0013515382,7.673991E-4,21.448166,0.57980347,-39.731926
563934950360573,0.22937904,-0.0383531,9.812983,1.3744447E-4,0.0013515382,7.673991E-4,21.448166,0.57980347,-39.731926
563934965078698,0.22937904,-0.0383531,9.812983,7.483092E-4,0.0013515382,0.0013782638,21.448166,0.57980347,-39.731926
563934966913073,0.22937904,-0.0383531,9.812983,7.483092E-4,0.0013515382,0.0013782638,20.559288,0.16226196,-39.30018
563934969984219,0.23177314,-0.040747203,9.801012,7.483092E-4,0.0013515382,0.0013782638,20.559288,0.16226196,-39.30018
563934984701563,0.23177314,-0.040747203,9.801012,-0.001084285,0.0013515382,7.673991E-4,20.559288,0.16226196,-39.30018
563934986913073,0.23177314,-0.040747203,9.801012,-0.001084285,0.0013515382,7.673991E-4,20.71862,-0.672287,-38.692543
563934989607865,0.23177314,-0.03715606,9.7974205,-0.001084285,0.0013515382,7.673991E-4,20.71862,-0.672287,-38.692543
563935004325990,0.23177314,-0.03715606,9.7974205,1.3744447E-4,1.2980876E-4,1.5653437E-4,20.71862,-0.672287,-38.692543
563935006913073,0.23177314,-0.03715606,9.7974205,1.3744447E-4,1.2980876E-4,1.5653437E-4,21.300331,0.15457153,-39.60032
563935009231511,0.23177314,-0.044338353,9.801011,1.3744447E-4,1.2980876E-4,1.5653437E-4,21.300331,0.15457153,-39.60032
563935023948855,0.23177314,-0.044338353,9.801011,1.3744447E-4,0.0013515382,7.673991E-4,21.300331,0.15457153,-39.60032
563935026913073,0.23177314,-0.044338353,9.801011,1.3744447E-4,0.0013515382,7.673991E-4,20.71862,-0.672287,-38.692543
563935028855157,0.22818199,-0.046732455,9.7974205,1.3744447E-4,0.0013515382,7.673991E-4,20.71862,-0.672287,-38.692543
563935043573282,0.22818199,-0.046732455,9.7974205,7.483092E-4,-0.0017027854,-0.0010651951,20.71862,-0.672287,-38.692543
563935046913073,0.22818199,-0.046732455,9.7974205,7.483092E-4,-0.0017027854,-0.0010651951,21.908493,1.1762543,-39.187843
563935048478803,0.22818199,-0.037156053,9.799815,7.483092E-4,-0.0017027854,-0.0010651951,21.908493,1.1762543,-39.187843
563935063196146,0.22818199,-0.037156053,9.799815,7.483092E-4,7.406735E-4,1.5653437E-4,21.908493,1.1762543,-39.187843
563935066913073,0.22818199,-0.037156053,9.799815,7.483092E-4,7.406735E-4,1.5653437E-4,20.098022,-1.5760498,-39.751747
563935068102448,0.23536429,-0.038353108,9.795027,7.483092E-4,7.406735E-4,1.5653437E-4,20.098022,-1.5760498,-39.751747
563935082820573,0.23536429,-0.038353108,9.795027,7.483092E-4,0.0013515382,0.0013782638,20.098022,-1.5760498,-39.751747
563935086913073,0.23536429,-0.038353108,9.795027,7.483092E-4,0.0013515382,0.0013782638,21.770607,-0.9393616,-38.34379
563935087726094,0.22459084,-0.039550155,9.806997,7.483092E-4,0.0013515382,0.0013782638,21.770607,-0.9393616,-38.34379
563935102443438,0.22459084,-0.039550155,9.806997,0.0013591739,0.0019624028,0.0013782638,21.770607,-0.9393616,-38.34379
563935106913073,0.22459084,-0.039550155,9.806997,0.0013591739,0.0019624028,0.0013782638,23.573235,-0.34010315,-37.91378
563935107349740,0.22219674,-0.039550155,9.796223,0.0013591739,0.0019624028,0.0013782638,23.573235,-0.34010315,-37.91378
563935122067865,0.22219674,-0.039550155,9.796223,1.3744447E-4,0.0019624028,1.5653437E-4,23.573235,-0.34010315,-37.91378
563935126913073,0.22219674,-0.039550155,9.796223,1.3744447E-4,0.0019624028,1.5653437E-4,20.572655,1.1862488,-38.74595
563935126973386,0.22818199,-0.041944258,9.795027,1.3744447E-4,0.0019624028,1.5653437E-4,20.572655,1.1862488,-38.74595
563935141690730,0.22818199,-0.041944258,9.795027,0.0013591739,0.0019624028,0.0013782638,20.572655,1.1862488,-38.74595
563935146913073,0.22818199,-0.041944258,9.795027,0.0013591739,0.0019624028,0.0013782638,21.604782,-0.117630005,-39.27926
563935146597032,0.22818199,-0.039550155,9.801012,0.0013591739,0.0019624028,0.0013782638,21.604782,-0.117630005,-39.27926
563935161315157,0.22818199,-0.039550155,9.801012,7.483092E-4,0.0019624028,0.0013782638,21.604782,-0.117630005,-39.27926
563935166913073,0.22818199,-0.039550155,9.801012,7.483092E-4,0.0019624028,0.0013782638,22.045883,-1.2692566,-39.49798
563935166220678,0.22818199,-0.03356491,9.801012,7.483092E-4,0.0019624028,0.0013782638,22.045883,-1.2692566,-39.49798
563935180938021,0.22818199,-0.03356491,9.801012,1.3744447E-4,7.406735E-4,7.673991E-4,22.045883,-1.2692566,-39.49798
563935186913073,0.22818199,-0.03356491,9.801012,1.3744447E-4,7.406735E-4,7.673991E-4,22.379501,-1.4837646,-37.701683
563935185844323,0.23416725,-0.04194425,9.787845,1.3744447E-4,7.406735E-4,7.673991E-4,22.379501,-1.4837646,-37.701683
563935200562448,0.23416725,-0.04194425,9.787845,0.0019700387,0.0019624028,0.0019891285,22.379501,-1.4837646,-37.701683
563935206913073,0.23416725,-0.04194425,9.787845,0.0019700387,0.0019624028,0.0019891285,20.403404,-0.7063751,-39.5232
563935205467969,0.23416725,-0.039550155,9.802209,0.0019700387,0.0019624028,0.0019891285,20.403404,-0.7063751,-39.5232
563935220185313,0.23416725,-0.039550155,9.802209,7.483092E-4,7.406735E-4,7.673991E-4,20.403404,-0.7063751,-39.5232
563935226913073,0.23416725,-0.039550155,9.802209,7.483092E-4,7.406735E-4,7.673991E-4,20.536598,0.11740112,-40.447594
563935225091615,0.22698495,-0.039550155,9.8057995,7.483092E-4,7.406735E-4,7.673991E-4,20.536598,0.11740112,-40.447594
563935239809740,0.22698495,-0.039550155,9.8057995,0.0013591739,0.0013515382,0.0013782638,20.536598,0.11740112,-40.447594
563935246913073,0.22698495,-0.039550155,9.8057995,0.0013591739,0.0013515382,0.0013782638,20.857254,-0.12275696,-39.306953
563935244715261,0.2305761,-0.044338353,9.787844,0.0013591739,0.0013515382,0.0013782638,20.857254,-0.12275696,-39.306953
563935259432605,0.2305761,-0.044338353,9.787844,1.3744447E-4,0.0013515382,0.0013782638,20.857254,-0.12275696,-39.306953
563935266913073,0.2305761,-0.044338353,9.787844,1.3744447E-4,0.0013515382,0.0013782638,21.740395,-1.2841187,-39.83689
563935264338907,0.22578791,-0.031170808,9.799814,1.3744447E-4,0.0013515382,0.0013782638,21.740395,-1.2841187,-39.83689
563935279057032,0.22578791,-0.031170808,9.799814,0.0013591739,0.0019624028,0.0013782638,21.740395,-1.2841187,-39.83689
563935286913073,0.22578791,-0.031170808,9.799814,0.0013591739,0.0019624028,0.0013782638,20.722275,0.3324585,-38.63006
563935283962553,0.2305761,-0.037156053,9.793829,0.0013591739,0.0019624028,0.0013782638,20.722275,0.3324585,-38.63006
563935298679896,0.2305761,-0.037156053,9.793829,7.483092E-4,0.0019624028,0.0013782638,20.722275,0.3324585,-38.63006
563935306913073,0.2305761,-0.037156053,9.793829,7.483092E-4,0.0019624028,0.0013782638,20.864365,-0.8211975,-38.85984
563935303586198,0.2233938,-0.0383531,9.790238,7.483092E-4,0.0019624028,0.0013782638,20.864365,-0.8211975,-38.85984
563935318304323,0.2233938,-0.0383531,9.790238,0.0013591739,0.0019624028,0.0013782638,20.864365,-0.8211975,-38.85984
563935326913073,0.2233938,-0.0383531,9.790238,0.0013591739,0.0019624028,0.0013782638,20.99965,0.5767212,-39.748543
563935323209844,0.2257879,-0.039550155,9.795027,0.0013591739,0.0019624028,0.0013782638,20.99965,0.5767212,-39.748543
563935337927188,0.2257879,-0.039550155,9.795027,0.0013591739,0.0013515382,0.0013782638,20.99965,0.5767212,-39.748543
563935346913073,0.2257879,-0.039550155,9.795027,0.0013591739,0.0013515382,0.0013782638,21.01764,-0.67022705,-38.681465
563935342833542,0.22698495,-0.031170808,9.793829,0.0013591739,0.0013515382,0.0013782638,21.01764,-0.67022705,-38.681465
563935357551667,0.22698495,-0.031170808,9.793829,1.3744447E-4,7.406735E-4,-4.5433035E-4,21.01764,-0.67022705,-38.681465
563935366913073,0.22698495,-0.031170808,9.793829,1.3744447E-4,7.406735E-4,-4.5433035E-4,19.503654,-0.57540894,-39.71142
563935362457188,0.23177314,-0.04433836,9.791435,1.3744447E-4,7.406735E-4,-4.5433035E-4,19.503654,-0.57540894,-39.71142
563935377174480,0.23177314,-0.04433836,9.791435,0.0013591739,0.0013515382,7.673991E-4,19.503654,-0.57540894,-39.71142
563935386913073,0.23177314,-0.04433836,9.791435,0.0013591739,0.0013515382,7.673991E-4,21.292809,-0.14530945,-39.946007
563935382080834,0.22818199,-0.035959005,9.8057995,0.0013591739,0.0013515382,7.673991E-4,21.292809,-0.14530945,-39.946007
563935396798959,0.22818199,-0.035959005,9.8057995,-4.7342025E-4,0.0013515382,7.673991E-4,21.292809,-0.14530945,-39.946007
563935401704480,0.22818199,-0.031170808,9.808195,-4.7342025E-4,0.0013515382,7.673991E-4,21.292809,-0.14530945,-39.946007
563935406913073,0.22818199,-0.031170808,9.808195,-4.7342025E-4,0.0013515382,7.673991E-4,23.090645,0.016937256,-39.706703
563935416421771,0.22818199,-0.031170808,9.808195,1.3744447E-4,0.0025732676,0.0013782638,23.090645,0.016937256,-39.706703
563935426913073,0.22818199,-0.031170808,9.808195,1.3744447E-4,0.0025732676,0.0013782638,19.066315,0.7261658,-39.319862
563935421328125,0.23177314,-0.040747203,9.78545,1.3744447E-4,0.0025732676,0.0013782638,19.066315,0.7261658,-39.319862
563935436046250,0.23177314,-0.040747203,9.78545,7.483092E-4,7.406735E-4,7.673991E-4,19.066315,0.7261658,-39.319862
563935440951771,0.22818199,-0.04074721,9.7974205,7.483092E-4,7.406735E-4,7.673991E-4,19.066315,0.7261658,-39.319862
563935446913073,0.22818199,-0.04074721,9.7974205,7.483092E-4,7.406735E-4,7.673991E-4,21.752617,0.30760193,-39.410866
563935455669115,0.22818199,-0.04074721,9.7974205,1.3744447E-4,1.2980876E-4,1.5653437E-4,21.752617,0.30760193,-39.410866
563935460575417,0.2257879,-0.033564903,9.786648,1.3744447E-4,1.2980876E-4,1.5653437E-4,21.752617,0.30760193,-39.410866
563935466913073,0.2257879,-0.033564903,9.786648,1.3744447E-4,1.2980876E-4,1.5653437E-4,21.708282,0.5049591,-41.687828
563935475293542,0.2257879,-0.033564903,9.786648,0.0013591739,0.0013515382,0.0013782638,21.708282,0.5049591,-41.687828
563935480199063,0.22698495,-0.039550155,9.795027,0.0013591739,0.0013515382,0.0013782638,21.708282,0.5049591,-41.687828
563935486913073,0.22698495,-0.039550155,9.795027,0.0013591739,0.0013515382,0.0013782638,20.685173,-1.0234528,-40.349556
563935494916407,0.22698495,-0.039550155,9.795027,7.483092E-4,0.0013515382,7.673991E-4,20.685173,-1.0234528,-40.349556
563935499822709,0.2257879,-0.037156053,9.7974205,7.483092E-4,0.0013515382,7.673991E-4,20.685173,-1.0234528,-40.349556
563935506913073,0.2257879,-0.037156053,9.7974205,7.483092E-4,0.0013515382,7.673991E-4,21.72889,-0.02432251,-40.576134
563935514540834,0.2257879,-0.037156053,9.7974205,1.3744447E-4,1.2980876E-4,1.5653437E-4,21.72889,-0.02432251,-40.576134
563935519446355,0.23416725,-0.040747203,9.793829,1.3744447E-4,1.2980876E-4,1.5653437E-4,21.72889,-0.02432251,-40.576134
563935526913073,0.23416725,-0.040747203,9.793829,1.3744447E-4,1.2980876E-4,1.5653437E-4,23.691376,-0.11608887,-39.52955
563935534163698,0.23416725,-0.040747203,9.793829,7.483092E-4,0.0019624028,7.673991E-4,23.691376,-0.11608887,-39.52955
563935539070053,0.22937904,-0.035959005,9.790238,7.483092E-4,0.0019624028,7.673991E-4,23.691376,-0.11608887,-39.52955
563935546913073,0.22937904,-0.035959005,9.790238,7.483092E-4,0.0019624028,7.673991E-4,19.93325,-0.46725464,-40.66938
563935553788178,0.22937904,-0.035959005,9.790238,7.483092E-4,7.406735E-4,7.673991E-4,19.93325,-0.46725464,-40.66938
563935558693698,0.22937904,-0.040747203,9.803406,7.483092E-4,7.406735E-4,7.673991E-4,19.93325,-0.46725464,-40.66938
563935566913073,0.22937904,-0.040747203,9.803406,7.483092E-4,7.406735E-4,7.673991E-4,19.34935,-1.013443,-39.90766
563935573410990,0.22937904,-0.040747203,9.803406,7.483092E-4,0.0013515382,7.673991E-4,19.34935,-1.013443,-39.90766
563935578317344,0.2233938,-0.037156053,9.790238,7.483092E-4,0.0013515382,7.673991E-4,19.34935,-1.013443,-39.90766
563935586913073,0.2233938,-0.037156053,9.790238,7.483092E-4,0.0013515382,7.673991E-4,21.284126,0.122528076,-40.4199
563935593035469,0.2233938,-0.037156053,9.790238,7.483092E-4,0.0019624028,0.0013782638,21.284126,0.122528076,-40.4199
563935597940990,0.22937904,-0.040747203,9.787844,7.483092E-4,0.0019624028,0.0013782638,21.284126,0.122528076,-40.4199
563935606913073,0.22937904,-0.040747203,9.787844,7.483092E-4,0.0019624028,0.0013782638,21.904839,0.17149353,-39.250328
563935612658334,0.22937904,-0.040747203,9.787844,0.0013591739,7.406735E-4,7.673991E-4,21.904839,0.17149353,-39.250328
563935617564636,0.22219674,-0.037156053,9.780662,0.0013591739,7.406735E-4,7.673991E-4,21.904839,0.17149353,-39.250328
563935626913073,0.22219674,-0.037156053,9.780662,0.0013591739,7.406735E-4,7.673991E-4,22.487587,1.2854309,-40.140266
563935632282761,0.22219674,-0.037156053,9.780662,1.3744447E-4,1.2980876E-4,1.5653437E-4,22.487587,1.2854309,-40.140266
563935637188282,0.22818199,-0.039550155,9.787845,1.3744447E-4,1.2980876E-4,1.5653437E-4,22.487587,1.2854309,-40.140266
563935646913073,0.22818199,-0.039550155,9.787845,1.3744447E-4,1.2980876E-4,1.5653437E-4,20.692291,-1.7219086,-39.902443
563935651905625,0.22818199,-0.039550155,9.787845,1.3744447E-4,7.406735E-4,7.673991E-4,20.692291,-1.7219086,-39.902443
563935656811980,0.22937904,-0.04433836,9.786648,1.3744447E-4,7.406735E-4,7.673991E-4,20.692291,-1.7219086,-39.902443
563935666913073,0.22937904,-0.04433836,9.786648,1.3744447E-4,7.406735E-4,7.673991E-4,21.442429,-0.99909973,-39.830116
563935671530105,0.22937904,-0.04433836,9.786648,1.3744447E-4,1.2980876E-4,1.5653437E-4,21.442429,-0.99909973,-39.830116
563935676435625,0.22937904,-0.040747203,9.780663,1.3744447E-4,1.2980876E-4,1.5653437E-4,21.442429,-0.99909973,-39.830116
563935686913073,0.22937904,-0.040747203,9.780663,1.3744447E-4,1.2980876E-4,1.5653437E-4,20.567963,-0.10557556,-38.826286
563935691152917,0.22937904,-0.040747203,9.780663,1.3744447E-4,0.0013515382,1.5653437E-4,20.567963,-0.10557556,-38.826286
563935696059271,0.2257879,-0.034761958,9.786648,1.3744447E-4,0.0013515382,1.5653437E-4,20.567963,-0.10557556,-38.826286
563935706913073,0.2257879,-0.034761958,9.786648,1.3744447E-4,0.0013515382,1.5653437E-4,20.554886,0.7236023,-39.592308
563935710777396,0.2257879,-0.034761958,9.786648,1.3744447E-4,0.0013515382,0.0013782638,20.554886,0.7236023,-39.592308
563935715682917,0.2305761,-0.038353108,9.7890415,1.3744447E-4,0.0013515382,0.0013782638,20.554886,0.7236023,-39.592308
563935726913073,0.2305761,-0.038353108,9.7890415,1.3744447E-4,0.0013515382,0.0013782638,20.701378,-0.9914093,-39.529976
563935730400261,0.2305761,-0.038353108,9.7890415,1.3744447E-4,7.406735E-4,1.5653437E-4,20.701378,-0.9914093,-39.529976
563935735306563,0.22937904,-0.035959005,9.781859,1.3744447E-4,7.406735E-4,1.5653437E-4,20.701378,-0.9914093,-39.529976
563935746913073,0.22937904,-0.035959005,9.781859,1.3744447E-4,7.406735E-4,1.5653437E-4,20.695938,-0.7171478,-39.83996
563935750024688,0.22937904,-0.035959005,9.781859,1.3744447E-4,7.406735E-4,1.5653437E-4,20.695938,-0.7171478,-39.83996
563935754930209,0.2401525,-0.043141305,9.781859,1.3744447E-4,7.406735E-4,1.5653437E-4,20.695938,-0.7171478,-39.83996
563935766913073,0.2401525,-0.043141305,9.781859,1.3744447E-4,7.406735E-4,1.5653437E-4,21.623077,0.48857117,-38.423973
563935769647553,0.2401525,-0.043141305,9.781859,7.483092E-4,0.0019624028,7.673991E-4,21.623077,0.48857117,-38.423973
563935774553855,0.22937904,-0.033564903,9.793829,7.483092E-4,0.0019624028,7.673991E-4,21.623077,0.48857117,-38.423973
563935786913073,0.22937904,-0.033564903,9.793829,7.483092E-4,0.0019624028,7.673991E-4,21.307854,0.45446777,-39.25463
563935789271980,0.22937904,-0.033564903,9.793829,7.483092E-4,0.0019624028,7.673991E-4,21.307854,0.45446777,-39.25463
563935794177500,0.2257879,-0.035959005,9.783056,7.483092E-4,0.0019624028,7.673991E-4,21.307854,0.45446777,-39.25463
563935806913073,0.2257879,-0.035959005,9.783056,7.483092E-4,0.0019624028,7.673991E-4,22.049011,-0.40803528,-39.44442
563935808894844,0.2257879,-0.035959005,9.783056,1.3744447E-4,0.0025732676,0.0013782638,22.049011,-0.40803528,-39.44442
563935813801198,0.22698495,-0.035959005,9.783056,1.3744447E-4,0.0025732676,0.0013782638,22.049011,-0.40803528,-39.44442
563935826913073,0.22698495,-0.035959005,9.783056,1.3744447E-4,0.0025732676,0.0013782638,22.031761,-0.72714233,-40.281853
563935828519323,0.22698495,-0.035959005,9.783056,7.483092E-4,0.0013515382,7.673991E-4,22.031761,-0.72714233,-40.281853
563935833424844,0.2305761,-0.039550155,9.7890415,7.483092E-4,0.0013515382,7.673991E-4,22.031761,-0.72714233,-40.281853
563935846913073,0.2305761,-0.039550155,9.7890415,7.483092E-4,0.0013515382,7.673991E-4,22.050575,0.022583008,-39.41764
563935848142188,0.2305761,-0.039550155,9.7890415,1.3744447E-4,0.0013515382,7.673991E-4,22.050575,0.022583008,-39.41764
563935853048490,0.22818199,-0.041944258,9.773479,1.3744447E-4,0.0013515382,7.673991E-4,22.050575,0.022583008,-39.41764
563935866913073,0.22818199,-0.041944258,9.773479,1.3744447E-4,0.0013515382,7.673991E-4,21.623817,-1.0775146,-38.194344
563935867766615,0.22818199,-0.041944258,9.773479,1.3744447E-4,0.0013515382,7.673991E-4,21.623817,-1.0775146,-38.194344
563935872672136,0.22818199,-0.039550155,9.7890415,1.3744447E-4,0.0013515382,7.673991E-4,21.623817,-1.0775146,-38.194344
563935886913073,0.22818199,-0.039550155,9.7890415,1.3744447E-4,0.0013515382,7.673991E-4,20.104286,0.1463623,-39.64463
563935887389480,0.22818199,-0.039550155,9.7890415,0.0013591739,0.0013515382,1.5653437E-4,20.104286,0.1463623,-39.64463
563935892295782,0.22698495,-0.040747203,9.780662,0.0013591739,0.0013515382,1.5653437E-4,20.104286,0.1463623,-39.64463
563935906913073,0.22698495,-0.040747203,9.780662,0.0013591739,0.0013515382,1.5653437E-4,21.758057,0.033355713,-39.100883
563935907013907,0.22698495,-0.040747203,9.780662,1.3744447E-4,1.2980876E-4,1.5653437E-4,21.758057,0.033355713,-39.100883
563935911919428,0.2305761,-0.039550155,9.775873,1.3744447E-4,1.2980876E-4,1.5653437E-4,21.758057,0.033355713,-39.100883
563935926636771,0.2305761,-0.039550155,9.775873,-4.7342025E-4,0.0013515382,-4.5433035E-4,21.758057,0.033355713,-39.100883
563935926913073,0.2305761,-0.039550155,9.775873,-4.7342025E-4,0.0013515382,-4.5433035E-4,19.660576,0.580307,-39.47056
563935931543073,0.2305761,-0.03476195,9.779465,-4.7342025E-4,0.0013515382,-4.5433035E-4,19.660576,0.580307,-39.47056
563935946913073,0.2305761,-0.03476195,9.779465,-4.7342025E-4,0.0013515382,-4.5433035E-4,22.060516,-1.6678162,-38.705177
563935946261198,0.2305761,-0.03476195,9.779465,1.3744447E-4,7.406735E-4,1.5653437E-4,22.060516,-1.6678162,-38.705177
563935951166719,0.23177314,-0.031170808,9.780663,1.3744447E-4,7.406735E-4,1.5653437E-4,22.060516,-1.6678162,-38.705177
563935966913073,0.23177314,-0.031170808,9.780663,1.3744447E-4,7.406735E-4,1.5653437E-4,20.871895,-0.5213165,-38.514153
563935965884063,0.23177314,-0.031170808,9.780663,7.483092E-4,0.0025732676,0.0013782638,20.871895,-0.5213165,-38.514153
563935970790417,0.23416725,-0.032367855,9.774676,7.483092E-4,0.0025732676,0.0013782638,20.871895,-0.5213165,-38.514153
563935985508542,0.23416725,-0.032367855,9.774676,1.3744447E-4,0.0013515382,7.673991E-4,20.871895,-0.5213165,-38.514153
563935986913073,0.23416725,-0.032367855,9.774676,1.3744447E-4,0.0013515382,7.673991E-4,21.752617,0.30760193,-39.410866
563935990414063,0.2377584,-0.029973753,9.783056,1.3744447E-4,0.0013515382,7.673991E-4,21.752617,0.30760193,-39.410866
563936005131355,0.2377584,-0.029973753,9.783056,7.483092E-4,0.0019624028,0.0013782638,21.752617,0.30760193,-39.410866
563936006913073,0.2377584,-0.029973753,9.783056,7.483092E-4,0.0019624028,0.0013782638,21.906929,0.74565125,-39.214622
563936010037709,0.2305761,-0.046732455,9.784253,7.483092E-4,0.0019624028,0.0013782638,21.906929,0.74565125,-39.214622
563936024755834,0.2305761,-0.046732455,9.784253,7.483092E-4,7.406735E-4,1.5653437E-4,21.906929,0.74565125,-39.214622
563936026913073,0.2305761,-0.046732455,9.784253,7.483092E-4,7.406735E-4,1.5653437E-4,19.820435,-0.110702515,-38.85398
563936029661355,0.2305761,-0.038353108,9.779465,7.483092E-4,7.406735E-4,1.5653437E-4,19.820435,-0.110702515,-38.85398
563936044378698,0.2305761,-0.038353108,9.779465,7.483092E-4,7.406735E-4,1.5653437E-4,19.820435,-0.110702515,-38.85398
563936046913073,0.2305761,-0.038353108,9.779465,7.483092E-4,7.406735E-4,1.5653437E-4,20.730545,-0.9337311,-38.054726
563936049285000,0.23177314,-0.045535408,9.772283,7.483092E-4,7.406735E-4,1.5653437E-4,20.730545,-0.9337311,-38.054726
563936064003125,0.23177314,-0.045535408,9.772283,7.483092E-4,0.0019624028,7.673991E-4,20.730545,-0.9337311,-38.054726
563936066913073,0.23177314,-0.045535408,9.772283,7.483092E-4,0.0019624028,7.673991E-4,20.0952,-0.5841217,-40.017097
563936068908646,0.22698495,-0.038353108,9.772283,7.483092E-4,0.0019624028,7.673991E-4,20.0952,-0.5841217,-40.017097
563936083625990,0.22698495,-0.038353108,9.772283,1.3744447E-4,1.2980876E-4,1.5653437E-4,20.0952,-0.5841217,-40.017097
563936086913073,0.22698495,-0.038353108,9.772283,1.3744447E-4,1.2980876E-4,1.5653437E-4,20.984184,-1.0213928,-40.338478
563936088532292,0.22459084,-0.031170808,9.774676,1.3744447E-4,1.2980876E-4,1.5653437E-4,20.984184,-1.0213928,-40.338478
563936103250417,0.22459084,-0.031170808,9.774676,7.483092E-4,7.406735E-4,7.673991E-4,20.984184,-1.0213928,-40.338478
563936106913073,0.22459084,-0.031170808,9.774676,7.483092E-4,7.406735E-4,7.673991E-4,20.593483,-1.0526581,-37.413536
563936108155938,0.2305761,-0.034761958,9.773479,7.483092E-4,7.406735E-4,7.673991E-4,20.593483,-1.0526581,-37.413536
563936122873282,0.2305761,-0.034761958,9.773479,7.483092E-4,0.0013515382,7.673991E-4,20.593483,-1.0526581,-37.413536
563936126913073,0.2305761,-0.034761958,9.773479,7.483092E-4,0.0013515382,7.673991E-4,20.844292,-0.14839172,-39.962624
563936127779584,0.22099969,-0.035959005,9.769888,7.483092E-4,0.0013515382,7.673991E-4,20.844292,-0.14839172,-39.962624
563936142497709,0.22099969,-0.035959005,9.769888,7.483092E-4,1.2980876E-4,-4.5433035E-4,20.844292,-0.14839172,-39.962624
563936146913073,0.22099969,-0.035959005,9.769888,7.483092E-4,1.2980876E-4,-4.5433035E-4,21.444511,-0.42495728,-39.79441
563936147403230,0.22818199,-0.04194425,9.783056,7.483092E-4,1.2980876E-4,-4.5433035E-4,21.444511,-0.42495728,-39.79441
563936162120573,0.22818199,-0.04194425,9.783056,7.483092E-4,1.2980876E-4,1.5653437E-4,21.444511,-0.42495728,-39.79441
563936166913073,0.22818199,-0.04194425,9.783056,7.483092E-4,1.2980876E-4,1.5653437E-4,21.428307,-0.45700073,-40.61399
563936167026875,0.2257879,-0.037156053,9.771086,7.483092E-4,1.2980876E-4,1.5653437E-4,21.428307,-0.45700073,-40.61399
563936181745000,0.2257879,-0.037156053,9.771086,0.0013591739,1.2980876E-4,1.5653437E-4,21.428307,-0.45700073,-40.61399
563936186913073,0.2257879,-0.037156053,9.771086,0.0013591739,1.2980876E-4,1.5653437E-4,21.74614,0.29478455,-39.7387
563936186650521,0.2209997,-0.039550155,9.778268,0.0013591739,1.2980876E-4,1.5653437E-4,21.74614,0.29478455,-39.7387
563936201367865,0.2209997,-0.039550155,9.778268,0.0013591739,0.0013515382,7.673991E-4,21.74614,0.29478455,-39.7387
563936206913073,0.2209997,-0.039550155,9.778268,0.0013591739,0.0013515382,7.673991E-4,20.869064,0.47061157,-38.779503
563936206274167,0.2329702,-0.03476195,9.780663,0.0013591739,0.0013515382,7.673991E-4,20.869064,0.47061157,-38.779503
563936220992292,0.2329702,-0.03476195,9.780663,7.483092E-4,0.0013515382,0.0013782638,20.869064,0.47061157,-38.779503
563936226913073,0.2329702,-0.03476195,9.780663,7.483092E-4,0.0013515382,0.0013782638,20.750397,0.10307312,-37.17266
563936225897813,0.2257879,-0.040747203,9.772282,7.483092E-4,0.0013515382,0.0013782638,20.750397,0.10307312,-37.17266
563936240615157,0.2257879,-0.040747203,9.772282,1.3744447E-4,0.0013515382,1.5653437E-4,20.750397,0.10307312,-37.17266
563936246913073,0.2257879,-0.040747203,9.772282,1.3744447E-4,0.0013515382,1.5653437E-4,21.303162,-0.83735657,-39.33497
563936245521459,0.2329702,-0.039550155,9.763904,1.3744447E-4,0.0013515382,1.5653437E-4,21.303162,-0.83735657,-39.33497
563936260239584,0.2329702,-0.039550155,9.763904,7.483092E-4,7.406735E-4,1.5653437E-4,21.303162,-0.83735657,-39.33497
563936266913073,0.2329702,-0.039550155,9.763904,7.483092E-4,7.406735E-4,1.5653437E-4,21.444511,-0.42495728,-39.79441
563936265145105,0.22698495,-0.039550155,9.78545,7.483092E-4,7.406735E-4,1.5653437E-4,21.444511,-0.42495728,-39.79441
563936279862448,0.22698495,-0.039550155,9.78545,1.3744447E-4,7.406735E-4,7.673991E-4,21.444511,-0.42495728,-39.79441
563936286913073,0.22698495,-0.039550155,9.78545,1.3744447E-4,7.406735E-4,7.673991E-4,19.5,-1.5801544,-39.773903
563936284768750,0.22219676,-0.04074721,9.77707,1.3744447E-4,7.406735E-4,7.673991E-4,19.5,-1.5801544,-39.773903
563936299486875,0.22219676,-0.04074721,9.77707,7.483092E-4,0.0025732676,0.0013782638,19.5,-1.5801544,-39.773903
563936306913073,0.22219676,-0.04074721,9.77707,7.483092E-4,0.0025732676,0.0013782638,20.108162,-0.55848694,-39.361427
563936304392396,0.23177314,-0.039550155,9.763903,7.483092E-4,0.0025732676,0.0013782638,20.108162,-0.55848694,-39.361427
563936319109740,0.23177314,-0.039550155,9.763903,0.0013591739,0.0025732676,0.0013782638,20.108162,-0.55848694,-39.361427
563936326913073,0.23177314,-0.039550155,9.763903,0.0013591739,0.0025732676,0.0013782638,20.72332,0.61953735,-38.612206
563936324016042,0.22937904,-0.035959005,9.781859,0.0013591739,0.0025732676,0.0013782638,20.72332,0.61953735,-38.612206
563936338734167,0.22937904,-0.035959005,9.781859,7.483092E-4,1.2980876E-4,7.673991E-4,20.72332,0.61953735,-38.612206
563936346913073,0.22937904,-0.035959005,9.781859,7.483092E-4,1.2980876E-4,7.673991E-4,21.582092,-0.16249084,-40.426674
563936343639688,0.23656134,-0.047929496,9.786648,7.483092E-4,1.2980876E-4,7.673991E-4,21.582092,-0.16249084,-40.426674
563936358357032,0.23656134,-0.047929496,9.786648,-0.001084285,1.2980876E-4,1.5653437E-4,21.582092,-0.16249084,-40.426674
563936366913073,0.23656134,-0.047929496,9.786648,-0.001084285,1.2980876E-4,1.5653437E-4,20.124146,1.1831665,-38.762566
563936363263334,0.23177314,-0.040747203,9.769888,-0.001084285,1.2980876E-4,1.5653437E-4,20.124146,1.1831665,-38.762566
563936377981459,0.23177314,-0.040747203,9.769888,7.483092E-4,0.0013515382,0.0013782638,20.124146,1.1831665,-38.762566
563936386913073,0.23177314,-0.040747203,9.769888,7.483092E-4,0.0013515382,0.0013782638,21.01522,1.3200378,-39.04824
563936382886980,0.2329702,-0.047929503,9.784254,7.483092E-4,0.0013515382,0.0013782638,21.01522,1.3200378,-39.04824
563936397604271,0.2329702,-0.047929503,9.784254,7.483092E-4,7.406735E-4,1.5653437E-4,21.01522,1.3200378,-39.04824
563936402510625,0.2305761,-0.038353108,9.774676,7.483092E-4,7.406735E-4,1.5653437E-4,21.01522,1.3200378,-39.04824
563936406913073,0.2305761,-0.038353108,9.774676,7.483092E-4,7.406735E-4,1.5653437E-4,20.429749,0.3432312,-38.3133
563936417228750,0.2305761,-0.038353108,9.774676,-4.7342025E-4,1.2980876E-4,1.5653437E-4,20.429749,0.3432312,-38.3133
563936426913073,0.2305761,-0.038353108,9.774676,-4.7342025E-4,1.2980876E-4,1.5653437E-4,21.736412,0.27555847,-40.230446
563936422134271,0.22459084,-0.037156053,9.778268,-4.7342025E-4,1.2980876E-4,1.5653437E-4,21.736412,0.27555847,-40.230446
563936436851563,0.22459084,-0.037156053,9.778268,7.483092E-4,7.406735E-4,1.5653437E-4,21.736412,0.27555847,-40.230446
563936441757865,0.22937904,-0.0383531,9.791435,7.483092E-4,7.406735E-4,1.5653437E-4,21.736412,0.27555847,-40.230446
563936446913073,0.22937904,-0.0383531,9.791435,7.483092E-4,7.406735E-4,1.5653437E-4,21.93621,-0.051483154,-37.629036
563936456475990,0.22937904,-0.0383531,9.791435,1.3744447E-4,7.406735E-4,7.673991E-4,21.93621,-0.051483154,-37.629036
563936466913073,0.22937904,-0.0383531,9.791435,1.3744447E-4,7.406735E-4,7.673991E-4,21.453598,0.305542,-39.421944
563936461381511,0.22937904,-0.031170808,9.781859,1.3744447E-4,7.406735E-4,7.673991E-4,21.453598,0.305542,-39.421944
563936476098855,0.22937904,-0.031170808,9.781859,1.3744447E-4,0.0013515382,7.673991E-4,21.453598,0.305542,-39.421944
563936481005157,0.22818199,-0.046732448,9.773479,1.3744447E-4,0.0013515382,7.673991E-4,21.453598,0.305542,-39.421944
563936486913073,0.22818199,-0.046732448,9.773479,1.3744447E-4,0.0013515382,7.673991E-4,23.092728,0.5910797,-39.670998
563936495723282,0.22818199,-0.046732448,9.773479,7.483092E-4,1.2980876E-4,7.673991E-4,23.092728,0.5910797,-39.670998
563936506913073,0.22818199,-0.046732448,9.773479,7.483092E-4,1.2980876E-4,7.673991E-4,21.615547,0.18865967,-38.76966
563936500628803,0.22818199,-0.038353108,9.784252,7.483092E-4,1.2980876E-4,7.673991E-4,21.615547,0.18865967,-38.76966
563936515346146,0.22818199,-0.038353108,9.784252,7.483092E-4,0.0019624028,7.673991E-4,21.615547,0.18865967,-38.76966
563936520252448,0.22698495,-0.043141305,9.784254,7.483092E-4,0.0019624028,7.673991E-4,21.615547,0.18865967,-38.76966
563936526913073,0.22698495,-0.043141305,9.784254,7.483092E-4,0.0019624028,7.673991E-4,19.635803,-0.03868103,-40.65368
563936534970573,0.22698495,-0.043141305,9.784254,0.0013591739,0.0019624028,7.673991E-4,19.635803,-0.03868103,-40.65368
563936539876094,0.22818199,-0.037156053,9.767494,0.0013591739,0.0019624028,7.673991E-4,19.635803,-0.03868103,-40.65368
563936546913073,0.22818199,-0.037156053,9.767494,0.0013591739,0.0019624028,7.673991E-4,20.560326,0.44934082,-39.282326
563936554593386,0.22818199,-0.037156053,9.767494,1.3744447E-4,0.0013515382,7.673991E-4,20.560326,0.44934082,-39.282326
563936559499688,0.23177314,-0.035959005,9.775873,1.3744447E-4,0.0013515382,7.673991E-4,20.560326,0.44934082,-39.282326
563936566913073,0.23177314,-0.035959005,9.775873,1.3744447E-4,0.0013515382,7.673991E-4,20.849205,-0.56617737,-39.661568
563936574217813,0.23177314,-0.035959005,9.775873,1.3744447E-4,7.406735E-4,7.673991E-4,20.849205,-0.56617737,-39.661568
563936579123334,0.22698495,-0.038353108,9.772282,1.3744447E-4,7.406735E-4,7.673991E-4,20.849205,-0.56617737,-39.661568
563936586913073,0.22698495,-0.038353108,9.772282,1.3744447E-4,7.406735E-4,7.673991E-4,21.891876,0.14585876,-39.906
