time,aX,aY,aZ,wX,wY,wZ,mX,mY,mZ
1556490789293,0.70870376,8.152852,5.4719143,0.023923725,0.00952155,0.014958153,10.612009,-27.994488,-30.490993
1556490789292,0.75181526,8.241469,5.3904815,0.023923725,0.00952155,0.014958153,10.612009,-27.994488,-30.490993
1556490789300,0.75181526,8.241469,5.3904815,0.040436618,-0.007524019,0.028807677,10.612009,-27.994488,-30.490993
1556490789313,0.75181526,8.241469,5.3904815,0.040436618,-0.007524019,0.028807677,7.0684586,-29.391533,-29.897411
1556490789312,0.74463004,8.191174,5.349766,0.040436618,-0.007524019,0.028807677,7.0684586,-29.391533,-29.897411
1556490789320,0.74463004,8.191174,5.349766,0.030848488,-0.0069913454,0.02241559,7.0684586,-29.391533,-29.897411
1556490789333,0.74463004,8.191174,5.349766,0.030848488,-0.0069913454,0.02241559,8.583622,-28.840286,-29.281021
1556490789332,0.8715692,8.183989,5.5868783,0.030848488,-0.0069913454,0.02241559,8.583622,-28.840286,-29.281021
1556490789340,0.8715692,8.183989,5.5868783,0.009541525,0.019109685,0.02241559,8.583622,-28.840286,-29.281021
1556490789353,0.8715692,8.183989,5.5868783,0.009541525,0.019109685,0.02241559,9.749116,-28.731842,-30.020153
1556490789352,0.8787545,8.260631,5.3976665,0.009541525,0.019109685,0.02241559,9.749116,-28.731842,-30.020153
1556490789360,0.8787545,8.260631,5.3976665,0.030315809,0.036155254,0.019219546,9.749116,-28.731842,-30.020153
1556490789373,0.8787545,8.260631,5.3976665,0.030315809,0.036155254,0.019219546,10.597169,-28.231312,-27.896114
1556490789372,0.8571988,8.310926,5.1868997,0.030315809,0.036155254,0.019219546,10.597169,-28.231312,-27.896114
1556490789380,0.8571988,8.310926,5.1868997,0.039903942,0.01591364,0.019219546,10.597169,-28.231312,-27.896114
1556490789393,0.8571988,8.310926,5.1868997,0.039903942,0.01591364,0.019219546,9.0762205,-28.917507,-28.810444
1556490789391,0.91947085,8.318112,5.2084556,0.039903942,0.01591364,0.019219546,9.0762205,-28.917507,-28.810444
1556490789401,0.91947085,8.318112,5.2084556,0.029783137,-0.017644824,0.015490825,9.0762205,-28.917507,-28.810444
1556490789413,0.91947085,8.318112,5.2084556,0.029783137,-0.017644824,0.015490825,8.041464,-29.809582,-28.944363
1556490789412,0.92665607,8.23189,5.1845045,0.029783137,-0.017644824,0.015490825,8.041464,-29.809582,-28.944363
1556490789421,0.92665607,8.23189,5.1845045,0.009541525,-0.022438893,-0.004750787,8.041464,-29.809582,-28.944363
1556490789433,0.92665607,8.23189,5.1845045,0.009541525,-0.022438893,-0.004750787,8.915774,-28.800755,-28.667381
1556490789432,0.804507,8.191174,5.3234196,0.009541525,-0.022438893,-0.004750787,8.915774,-28.800755,-28.667381
1556490789440,0.804507,8.191174,5.3234196,-0.04212786,0.036687925,-0.017534964,8.915774,-28.800755,-28.667381
1556490789453,0.804507,8.191174,5.3234196,-0.04212786,0.036687925,-0.017534964,8.995664,-27.093658,-29.352386
1556490789452,0.7039136,8.131296,5.4024568,-0.04212786,0.036687925,-0.017534964,8.995664,-27.093658,-29.352386
1556490789461,0.7039136,8.131296,5.4024568,-0.037333794,0.03349188,-0.012740898,8.995664,-27.093658,-29.352386
1556490789473,0.7039136,8.131296,5.4024568,-0.037333794,0.03349188,-0.012740898,8.612707,-28.167118,-27.943264
1556490789472,0.6009252,8.07142,5.455148,-0.037333794,0.03349188,-0.012740898,8.612707,-28.167118,-27.943264
1556490789481,0.6009252,8.07142,5.455148,0.006878154,-0.03788644,0.006435368,8.612707,-28.167118,-27.943264
1556490789493,0.6009252,8.07142,5.455148,0.006878154,-0.03788644,0.006435368,10.160379,-26.97734,-29.331814
1556490789492,0.775766,8.042678,5.558137,0.006878154,-0.03788644,0.006435368,10.160379,-26.97734,-29.331814
1556490789501,0.775766,8.042678,5.558137,0.03138116,-0.077837,0.031471048,10.160379,-26.97734,-29.331814
1556490789513,0.775766,8.042678,5.558137,0.03138116,-0.077837,0.031471048,8.113543,-28.216969,-27.95208
1556490789512,0.91707575,8.08579,5.469519,0.03138116,-0.077837,0.031471048,8.113543,-28.216969,-27.95208
1556490789521,0.91707575,8.08579,5.469519,0.028185114,-0.029896328,0.038928483,8.113543,-28.216969,-27.95208
1556490789533,0.91707575,8.08579,5.469519,0.028185114,-0.029896328,0.038928483,7.8115673,-27.594357,-28.291546
1556490789533,0.8691742,8.241469,5.4168277,0.028185114,-0.029896328,0.038928483,7.8115673,-27.594357,-28.291546
1556490789541,0.8691742,8.241469,5.4168277,0.0063454793,0.04893943,0.03413442,7.8115673,-27.594357,-28.291546
1556490789553,0.8691742,8.241469,5.4168277,0.0063454793,0.04893943,0.03413442,9.167993,-26.943668,-29.20345
1556490789553,0.72786444,8.296556,5.136603,0.0063454793,0.04893943,0.03413442,9.167993,-26.943668,-29.20345
1556490789561,0.72786444,8.296556,5.136603,0.025521746,0.05107013,0.029340355,9.167993,-26.943668,-29.20345
1556490789573,0.72786444,8.296556,5.136603,0.025521746,0.05107013,0.029340355,7.2415676,-29.249416,-30.508175
1556490789573,0.97695273,8.421102,5.057565,0.025521746,0.05107013,0.029340355,7.2415676,-29.249416,-30.508175
1556490789581,0.97695273,8.421102,5.057565,0.037240572,-0.030429004,0.024546286,7.2415676,-29.249416,-30.508175
1556490789593,0.97695273,8.421102,5.057565,0.037240572,-0.030429004,0.024546286,7.7699738,-28.52797,-29.313541
1556490789592,0.9841381,8.351644,5.20606,0.037240572,-0.030429004,0.024546286,7.7699738,-28.52797,-29.313541
1556490789601,0.9841381,8.351644,5.20606,0.010074198,-0.08316373,-0.014338921,7.7699738,-28.52797,-29.313541
1556490789613,0.9841381,8.351644,5.20606,0.010074198,-0.08316373,-0.014338921,8.732338,-29.225365,-29.868023
1556490789612,0.7590005,8.236679,5.3593454,0.010074198,-0.08316373,-0.014338921,8.732338,-29.225365,-29.868023
1556490789621,0.7590005,8.236679,5.3593454,-0.0474546,-0.02616761,-0.029253794,8.732338,-29.225365,-29.868023
1556490789633,0.7590005,8.236679,5.3593454,-0.0474546,-0.02616761,-0.029253794,9.475135,-27.425037,-27.958279
1556490789632,0.9074955,8.339667,5.3689256,-0.0474546,-0.02616761,-0.029253794,9.475135,-27.425037,-27.958279
1556490789641,0.9074955,8.339667,5.3689256,-0.0719576,0.02976316,-0.013806247,9.475135,-27.425037,-27.958279
1556490789653,0.9074955,8.339667,5.3689256,-0.0719576,0.02976316,-0.013806247,9.925674,-28.431152,-28.053871
1556490789653,1.108682,8.40194,5.6683106,-0.0719576,0.02976316,-0.013806247,9.925674,-28.431152,-28.053871
1556490789661,1.108682,8.40194,5.6683106,-0.05384669,0.01484829,-0.050028082,9.925674,-28.431152,-28.053871
1556490789673,1.108682,8.40194,5.6683106,-0.05384669,0.01484829,-0.050028082,9.574917,-28.862934,-28.345802
1556490789672,0.72786444,8.12411,5.682681,-0.05384669,0.01484829,-0.050028082,9.574917,-28.862934,-28.345802
1556490789682,0.72786444,8.12411,5.682681,-5.792831E-4,-0.010720065,-0.0969034,9.574917,-28.862934,-28.345802
1556490789693,0.72786444,8.12411,5.682681,-5.792831E-4,-0.010720065,-0.0969034,8.7739315,-28.291744,-28.846031
1556490789693,0.42847943,8.0450735,5.407247,-5.792831E-4,-0.010720065,-0.0969034,8.7739315,-28.291744,-28.846031
1556490789702,0.42847943,8.0450735,5.407247,0.037773248,-0.014981456,-0.0660083,8.7739315,-28.291744,-28.846031
1556490789713,0.42847943,8.0450735,5.407247,0.037773248,-0.014981456,-0.0660083,8.500885,-26.994389,-27.695797
1556490789712,0.5482334,8.150456,5.179714,0.037773248,-0.014981456,-0.0660083,8.500885,-26.994389,-27.695797
1556490789722,0.5482334,8.150456,5.179714,0.04842673,-0.025634939,-0.012208224,8.500885,-26.994389,-27.695797
1556490789733,0.5482334,8.150456,5.179714,0.04842673,-0.025634939,-0.012208224,8.761736,-28.555344,-28.834145
1556490789733,0.6727776,8.198359,5.19648,0.04842673,-0.025634939,-0.012208224,8.761736,-28.555344,-28.834145
1556490789742,0.6727776,8.198359,5.19648,0.036175225,-0.046409227,0.012294782,8.761736,-28.555344,-28.834145
1556490789753,0.6727776,8.198359,5.19648,0.036175225,-0.046409227,0.012294782,9.463251,-27.691784,-28.250275
1556490789754,0.7206792,8.219914,5.155763,0.036175225,-0.046409227,0.012294782,9.463251,-27.691784,-28.250275
1556490789762,0.7206792,8.219914,5.155763,0.015933612,-0.061324097,0.016556175,9.463251,-27.691784,-28.250275
1556490789773,0.7206792,8.219914,5.155763,0.015933612,-0.061324097,0.016556175,9.403055,-29.01765,-28.950562
1556490789774,0.8188775,8.301347,5.3138394,0.015933612,-0.061324097,0.016556175,9.403055,-29.01765,-28.950562
1556490789782,0.8188775,8.301347,5.3138394,-0.022951594,-0.049605273,0.017621525,9.403055,-29.01765,-28.950562
1556490789793,0.8188775,8.301347,5.3138394,-0.022951594,-0.049605273,0.017621525,8.9473505,-28.152782,-29.760677
1556490789793,0.8907299,8.344458,5.4910746,-0.022951594,-0.049605273,0.017621525,8.9473505,-28.152782,-29.760677
1556490789802,0.8907299,8.344458,5.4910746,-0.031474378,-0.040017135,0.005902694,8.9473505,-28.152782,-29.760677
1556490789813,0.8907299,8.344458,5.4910746,-0.031474378,-0.040017135,0.005902694,7.2525177,-28.97322,-29.304531
1556490789814,0.7925316,8.272606,5.6707053,-0.031474378,-0.040017135,0.005902694,7.2525177,-28.97322,-29.304531
1556490789822,0.7925316,8.272606,5.6707053,-0.028278332,-0.02350424,-0.013806247,7.2525177,-28.97322,-29.304531
1556490789833,0.7925316,8.272606,5.6707053,-0.028278332,-0.02350424,-0.013806247,10.469076,-27.474453,-29.606056
1556490789834,0.8859398,8.248655,5.756928,-0.028278332,-0.02350424,-0.013806247,10.469076,-27.474453,-29.606056
1556490789842,0.8859398,8.248655,5.756928,-0.010167416,-0.008056695,-0.014871593,10.469076,-27.474453,-29.606056
1556490789853,0.8859398,8.248655,5.756928,-0.010167416,-0.008056695,-0.014871593,8.742977,-28.946018,-28.360497
1556490789854,0.82127255,8.298952,5.433593,-0.010167416,-0.008056695,-0.014871593,8.742977,-28.946018,-28.360497
1556490789862,0.82127255,8.298952,5.433593,0.0026167613,0.03828595,-0.018600313,8.742977,-28.946018,-28.360497
1556490789873,0.82127255,8.298952,5.433593,0.0026167613,0.03828595,-0.018600313,9.808222,-27.394955,-28.256283
1556490789874,0.64643174,8.191174,5.373716,0.0026167613,0.03828595,-0.018600313,9.808222,-27.394955,-28.256283
1556490789882,0.64643174,8.191174,5.373716,-0.0043080016,0.039351292,-0.028721122,9.808222,-27.394955,-28.256283
1556490789893,0.64643174,8.191174,5.373716,-0.0043080016,0.039351292,-0.028721122,8.441156,-28.324978,-28.851906
1556490789893,0.5745793,8.174408,5.455148,-0.0043080016,0.039351292,-0.028721122,8.441156,-28.324978,-28.851906
1556490789903,0.5745793,8.174408,5.455148,0.0063454793,0.004727483,-0.024992405,8.441156,-28.324978,-28.851906
1556490789913,0.5745793,8.174408,5.455148,0.0063454793,0.004727483,-0.024992405,8.804419,-27.632748,-28.87574
1556490789914,0.61529565,8.193568,5.3377895,0.0063454793,0.004727483,-0.024992405,8.804419,-27.632748,-28.87574
1556490789923,0.61529565,8.193568,5.3377895,0.02498907,-0.021373546,-0.0020874166,8.804419,-27.632748,-28.87574
1556490789932,0.61529565,8.193568,5.3377895,0.02498907,-0.021373546,-0.0020874166,9.41634,-28.765076,-30.026031
1556490789934,0.9146807,8.234285,5.4814944,0.02498907,-0.021373546,-0.0020874166,9.41634,-28.765076,-30.026031
1556490789943,0.9146807,8.234285,5.4814944,0.02871779,-0.041082487,0.015490825,9.41634,-28.765076,-30.026031
1556490789953,0.9146807,8.234285,5.4814944,0.02871779,-0.041082487,0.015490825,6.919117,-29.000156,-28.702648
1556490789963,0.9146807,8.234285,5.4814944,0.030848488,-0.017112153,-0.0036854395,6.919117,-29.000156,-28.702648
1556490789954,0.9865331,8.219914,5.4958653,0.030848488,-0.017112153,-0.0036854395,6.919117,-29.000156,-28.702648
1556490789973,0.9865331,8.219914,5.4958653,0.030848488,-0.017112153,-0.0036854395,10.437033,-28.117702,-28.056938
1556490789974,0.8907299,8.260631,5.3162336,0.030848488,-0.017112153,-0.0036854395,10.437033,-28.117702,-28.056938
1556490789983,0.8907299,8.260631,5.3162336,0.012204893,0.039351292,-0.022861702,10.437033,-28.117702,-28.056938
1556490789993,0.8907299,8.260631,5.3162336,0.012204893,0.039351292,-0.022861702,8.9028015,-29.056477,-27.895794
1556490789994,0.7039136,8.200753,5.2922835,0.012204893,0.039351292,-0.022861702,8.9028015,-29.056477,-27.895794
1556490790003,0.7039136,8.200753,5.2922835,-0.009102069,0.055331513,-0.035645884,8.9028015,-29.056477,-27.895794
1556490790013,0.7039136,8.200753,5.2922835,-0.009102069,0.055331513,-0.035645884,7.609995,-28.415936,-29.626305
1556490790014,0.66798747,8.069024,5.373716,-0.009102069,0.055331513,-0.035645884,7.609995,-28.415936,-29.626305
1556490790023,0.66798747,8.069024,5.373716,0.0010187393,0.012717593,-0.021796355,7.609995,-28.415936,-29.626305
1556490790032,0.66798747,8.069024,5.373716,0.0010187393,0.012717593,-0.021796355,8.472422,-27.673855,-29.64132
1556490790034,0.70151854,8.09537,5.4168277,0.0010187393,0.012717593,-0.021796355,8.472422,-27.673855,-29.64132
1556490790043,0.70151854,8.09537,5.4168277,0.02871779,-0.020308198,0.004837346,8.472422,-27.673855,-29.64132
1556490790053,0.70151854,8.09537,5.4168277,0.02871779,-0.020308198,0.004837346,9.593987,-28.47541,-29.123333
1556490790054,0.775766,8.265421,5.2563567,0.02871779,-0.020308198,0.004837346,9.593987,-28.47541,-29.123333
1556490790063,0.775766,8.265421,5.2563567,0.056949515,-0.029363656,0.02241559,9.593987,-28.47541,-29.123333
1556490790073,0.775766,8.265421,5.2563567,0.056949515,-0.029363656,0.02241559,8.945794,-28.137035,-28.241268
1556490790074,0.9577921,8.41152,5.19648,0.056949515,-0.029363656,0.02241559,8.945794,-28.137035,-28.241268
1556490790083,0.9577921,8.41152,5.19648,0.053220797,-0.03788644,0.015490825,8.945794,-28.137035,-28.241268
1556490790093,0.9577921,8.41152,5.19648,0.053220797,-0.03788644,0.015490825,8.514635,-26.74654,-29.227089
1556490790095,0.9913233,8.339667,5.287493,0.053220797,-0.03788644,0.015490825,8.514635,-26.74654,-29.227089
1556490790103,0.9913233,8.339667,5.287493,0.011672219,-0.02350424,-0.013273572,8.514635,-26.74654,-29.227089
1556490790113,0.9913233,8.339667,5.287493,0.011672219,-0.02350424,-0.013273572,8.502909,-27.014858,-29.671028
1556490790114,0.84043324,8.263026,5.474309,0.011672219,-0.02350424,-0.013273572,8.502909,-27.014858,-29.671028
1556490790124,0.84043324,8.263026,5.474309,-0.020288222,0.010586899,-0.03511321,8.502909,-27.014858,-29.671028
1556490790133,0.84043324,8.263026,5.474309,-0.020288222,0.010586899,-0.03511321,7.9423027,-28.37798,-29.164604
1556490790135,0.6608022,8.253445,5.366531,-0.020288222,0.010586899,-0.03511321,7.9423027,-28.37798,-29.164604
1556490790144,0.6608022,8.253445,5.366531,-0.0048406753,0.03402456,-0.032449838,7.9423027,-28.37798,-29.164604
1556490790153,0.6608022,8.253445,5.366531,-0.0048406753,0.03402456,-0.032449838,8.162634,-27.165722,-28.303493
1556490790154,0.6775678,8.217519,5.246776,-0.0048406753,0.03402456,-0.032449838,8.162634,-27.165722,-28.303493
1556490790164,0.6775678,8.217519,5.246776,0.017531633,0.0084562,-0.013273572,8.162634,-27.165722,-28.303493
1556490790173,0.6775678,8.217519,5.246776,0.017531633,0.0084562,-0.013273572,9.149389,-27.335918,-28.881744
1556490790175,0.84761846,8.318112,5.34258,0.017531633,0.0084562,-0.013273572,9.149389,-27.335918,-28.881744
1556490790183,0.84761846,8.318112,5.34258,0.023923725,-0.029896328,-0.004750787,9.149389,-27.335918,-28.881744
1556490790193,0.84761846,8.318112,5.34258,0.023923725,-0.029896328,-0.004750787,7.2411003,-29.24469,-30.052353
1556490790195,0.83803815,8.368409,5.2180357,0.023923725,-0.029896328,-0.004750787,7.2411003,-29.24469,-30.052353
1556490790203,0.83803815,8.368409,5.2180357,0.010606872,-0.0069913454,-0.017002292,7.2411003,-29.24469,-30.052353
1556490790213,0.83803815,8.368409,5.2180357,0.010606872,-0.0069913454,-0.017002292,8.631311,-27.774868,-28.264969
1556490790215,0.75660545,8.298952,5.2252207,0.010606872,-0.0069913454,-0.017002292,8.631311,-27.774868,-28.264969
1556490790224,0.75660545,8.298952,5.2252207,-0.014428809,0.012717593,-0.029786466,8.631311,-27.774868,-28.264969
1556490790233,0.75660545,8.298952,5.2252207,-0.014428809,0.012717593,-0.029786466,9.076999,-28.92538,-29.570148
1556490790235,0.7805562,8.308532,5.383296,-0.014428809,0.012717593,-0.029786466,9.076999,-28.92538,-29.570148
1556490790244,0.7805562,8.308532,5.383296,-0.0032426543,-0.019775523,-0.023394378,9.076999,-28.92538,-29.570148
1556490790253,0.7805562,8.308532,5.383296,-0.0032426543,-0.019775523,-0.023394378,8.611929,-28.159245,-27.18356
1556490790255,0.6823579,8.308532,5.277913,-0.0032426543,-0.019775523,-0.023394378,8.611929,-28.159245,-27.18356
1556490790264,0.6823579,8.308532,5.277913,0.019129656,-0.034157723,-0.018600313,8.611929,-28.159245,-27.18356
1556490790273,0.6823579,8.308532,5.277913,0.019129656,-0.034157723,-0.018600313,8.7739315,-28.291744,-28.846031
1556490790275,0.57218426,8.224704,5.3162336,0.019129656,-0.034157723,-0.018600313,8.7739315,-28.291744,-28.846031
1556490790284,0.57218426,8.224704,5.3162336,-0.002177305,-0.025634939,-0.019132985,8.7739315,-28.291744,-28.846031
1556490790293,0.57218426,8.224704,5.3162336,-0.002177305,-0.025634939,-0.019132985,8.762825,-28.566368,-29.897732
1556490790295,0.67038256,8.224704,5.6371746,-0.002177305,-0.025634939,-0.019132985,8.762825,-28.566368,-29.897732
1556490790304,0.67038256,8.224704,5.6371746,-0.021353573,-0.027765634,-0.00901218,8.762825,-28.566368,-29.897732
1556490790313,0.67038256,8.224704,5.6371746,-0.021353573,-0.027765634,-0.00901218,9.906293,-28.815525,-26.972454
1556490790316,0.773371,8.306137,5.732978,-0.021353573,-0.027765634,-0.00901218,9.906293,-28.815525,-26.972454
1556490790324,0.773371,8.306137,5.732978,0.015933612,-0.040017135,0.0032393239,9.906293,-28.815525,-26.972454
1556490790333,0.773371,8.306137,5.732978,0.015933612,-0.040017135,0.0032393239,9.494205,-27.03751,-28.73581
1556490790335,0.7110989,8.265421,5.464729,0.015933612,-0.040017135,0.0032393239,9.494205,-27.03751,-28.73581
1556490790345,0.7110989,8.265421,5.464729,0.054818816,-0.020308198,0.008566064,9.494205,-27.03751,-28.73581
1556490790353,0.7110989,8.265421,5.464729,0.054818816,-0.020308198,0.008566064,8.915307,-28.796032,-28.21156
1556490790355,0.73265463,8.239074,5.253962,0.054818816,-0.020308198,0.008566064,8.915307,-28.796032,-28.21156
1556490790364,0.73265463,8.239074,5.253962,0.054818816,-0.007524019,0.016556175,8.915307,-28.796032,-28.21156
1556490790373,0.73265463,8.239074,5.253962,0.054818816,-0.007524019,0.016556175,9.624475,-27.816414,-29.153042
1556490790375,0.893125,8.354038,5.277913,0.054818816,-0.007524019,0.016556175,9.624475,-27.816414,-29.153042
1556490790385,0.893125,8.354038,5.277913,0.04309999,-0.020308198,0.010164086,9.624475,-27.816414,-29.153042
1556490790393,0.893125,8.354038,5.277913,0.04309999,-0.020308198,0.010164086,9.998843,-26.84956,-28.125172
1556490790395,0.8236677,8.334878,5.246776,0.04309999,-0.020308198,0.010164086,9.998843,-26.84956,-28.125172
1556490790405,0.8236677,8.334878,5.246776,0.023923725,0.0036621355,-0.013273572,9.998843,-26.84956,-28.125172
1556490790413,0.8236677,8.334878,5.246776,0.023923725,0.0036621355,-0.013273572,9.998843,-26.84956,-28.125172
1556490790415,0.684753,8.2127285,5.3066535,0.023923725,0.0036621355,-0.013273572,9.998843,-26.84956,-28.125172
1556490790425,0.684753,8.2127285,5.3066535,0.006878154,0.026034443,-0.01966566,9.998843,-26.84956,-28.125172
1556490790433,0.684753,8.2127285,5.3066535,0.006878154,0.026034443,-0.01966566,10.6107645,-27.981888,-29.275463
1556490790436,0.6512219,8.25105,5.2755175,0.006878154,0.026034443,-0.01966566,10.6107645,-27.981888,-29.275463
1556490790445,0.6512219,8.25105,5.2755175,0.030848488,0.0025967872,-0.004750787,10.6107645,-27.981888,-29.275463
1556490790453,0.6512219,8.25105,5.2755175,0.030848488,0.0025967872,-0.004750787,9.433854,-28.361801,-29.284153
1556490790456,0.8116923,8.428286,5.167739,0.030848488,0.0025967872,-0.004750787,9.433854,-28.361801,-29.284153
1556490790465,0.8116923,8.428286,5.167739,0.05002475,-0.026700282,0.014958153,9.433854,-28.361801,-29.284153
1556490790473,0.8116923,8.428286,5.167739,0.05002475,-0.026700282,0.014958153,7.2819157,-28.303204,-28.270657
1556490790476,0.90989053,8.366014,5.383296,0.05002475,-0.026700282,0.014958153,7.2819157,-28.303204,-28.270657
1556490790485,0.90989053,8.366014,5.383296,0.05215545,-0.06611816,0.004837346,7.2819157,-28.303204,-28.270657
1556490790493,0.90989053,8.366014,5.383296,0.05215545,-0.06611816,0.004837346,9.623696,-27.80854,-28.393337
1556490790496,0.87635946,8.24626,5.404852,0.05215545,-0.06611816,0.004837346,9.623696,-27.80854,-28.393337
1556490790505,0.87635946,8.24626,5.404852,0.053220797,-0.03895179,-0.007414157,9.623696,-27.80854,-28.393337
1556490790513,0.87635946,8.24626,5.404852,0.053220797,-0.03895179,-0.007414157,8.071951,-29.150585,-28.974072
1556490790516,0.9362364,8.349249,5.165344,0.053220797,-0.03895179,-0.007414157,8.071951,-29.150585,-28.974072
1556490790525,0.9362364,8.349249,5.165344,0.0367079,0.036155254,-0.0015547429,8.071951,-29.150585,-28.974072
1556490790533,0.9362364,8.349249,5.165344,0.0367079,0.036155254,-0.0015547429,8.874494,-29.737518,-29.993256
1556490790536,0.73265463,8.327693,4.9689474,0.0367079,0.036155254,-0.0015547429,8.874494,-29.737518,-29.993256
1556490790545,0.73265463,8.327693,4.9689474,0.034577206,0.032426536,-0.006881485,8.874494,-29.737518,-29.993256
1556490790553,0.73265463,8.327693,4.9689474,0.034577206,0.032426536,-0.006881485,8.80364,-27.624874,-28.116035
1556490790556,0.6799629,8.243865,4.985713,0.034577206,0.032426536,-0.006881485,8.80364,-27.624874,-28.116035
1556490790566,0.6799629,8.243865,4.985713,0.048959404,-0.05280131,0.004304672,8.80364,-27.624874,-28.116035
1556490790573,0.6799629,8.243865,4.985713,0.048959404,-0.05280131,0.004304672,9.622296,-27.794365,-27.025867
1556490790577,0.8883348,8.234285,5.1270223,0.048959404,-0.05280131,0.004304672,9.622296,-27.794365,-27.025867
1556490790585,0.8883348,8.234285,5.1270223,0.0510901,-0.09967663,0.019219546,9.622296,-27.794365,-27.025867
1556490790593,0.8883348,8.234285,5.1270223,0.0510901,-0.09967663,0.019219546,8.084925,-28.894863,-29.745663
1556490790597,0.96018714,8.234285,5.2635417,0.0510901,-0.09967663,0.019219546,8.084925,-28.894863,-29.745663
1556490790605,0.96018714,8.234285,5.2635417,0.035642553,-0.070912234,0.011229434,8.084925,-28.894863,-29.745663
1556490790613,0.96018714,8.234285,5.2635417,0.035642553,-0.070912234,0.011229434,9.593209,-28.467537,-28.363628
1556490790617,1.0655706,8.315718,5.3018637,0.035642553,-0.070912234,0.011229434,9.593209,-28.467537,-28.363628
1556490790625,1.0655706,8.315718,5.3018637,0.042034645,-0.034690395,-0.011142875,9.593209,-28.467537,-28.363628
1556490790633,1.0655706,8.315718,5.3018637,0.042034645,-0.034690395,-0.011142875,9.737388,-29.000164,-30.464092
1556490790636,0.80690205,8.334878,4.8851194,0.042034645,-0.034690395,-0.011142875,9.737388,-29.000164,-30.464092
1556490790646,0.80690205,8.334878,4.8851194,0.041501965,0.004194809,-0.03830925,9.737388,-29.000164,-30.464092
1556490790653,0.80690205,8.334878,4.8851194,0.041501965,0.004194809,-0.03830925,8.699516,-29.86074,-27.5592
1556490790656,0.84522337,8.39715,4.9473915,0.041501965,0.004194809,-0.03830925,8.699516,-29.86074,-27.5592
1556490790666,0.84522337,8.39715,4.9473915,0.0047474573,-0.010187389,-0.040972617,8.699516,-29.86074,-27.5592
1556490790673,0.84522337,8.39715,4.9473915,0.0047474573,-0.010187389,-0.040972617,7.2819157,-28.303204,-28.270657
1556490790677,0.684753,8.224704,5.1821094,0.0047474573,-0.010187389,-0.040972617,7.2819157,-28.303204,-28.270657
1556490790686,0.684753,8.224704,5.1821094,-0.0059060236,-0.048007242,-0.063877605,7.2819157,-28.303204,-28.270657
1556490790693,0.684753,8.224704,5.1821094,-0.0059060236,-0.048007242,-0.063877605,8.730782,-29.209618,-28.348614
1556490790697,0.62966615,8.116925,5.251567,-0.0059060236,-0.048007242,-0.063877605,8.730782,-29.209618,-28.348614
1556490790706,0.62966615,8.116925,5.251567,-0.0186902,-0.022971565,-0.056420166,8.730782,-29.209618,-28.348614
1556490790713,0.62966615,8.116925,5.251567,-0.0186902,-0.022971565,-0.056420166,8.81817,-27.3849,-30.407032
1556490790717,0.49793676,8.167222,5.0647507,-0.0186902,-0.022971565,-0.056420166,8.81817,-27.3849,-30.407032
1556490790726,0.49793676,8.167222,5.0647507,-0.03680112,0.037753277,-0.03298251,8.81817,-27.3849,-30.407032
1556490790733,0.49793676,8.167222,5.0647507,-0.03680112,0.037753277,-0.03298251,8.528122,-30.02018,-28.619781
1556490790737,0.63924646,8.243865,5.459939,-0.03680112,0.037753277,-0.03298251,8.528122,-30.02018,-28.619781
1556490790746,0.63924646,8.243865,5.459939,-0.016559504,-0.011785412,-0.02232903,8.528122,-30.02018,-28.619781
1556490790753,0.63924646,8.243865,5.459939,-0.016559504,-0.011785412,-0.02232903,9.125311,-27.866264,-29.161858
1556490790757,0.5937399,8.25584,5.234801,-0.016559504,-0.011785412,-0.02232903,9.125311,-27.866264,-29.161858
1556490790766,0.5937399,8.25584,5.234801,0.046828706,-0.03788644,-0.023394378,9.125311,-27.866264,-29.161858
1556490790773,0.5937399,8.25584,5.234801,0.046828706,-0.03788644,-0.023394378,9.796027,-27.65855,-28.244396
1556490790778,0.72786444,8.447446,5.105467,0.046828706,-0.03788644,-0.023394378,9.796027,-27.65855,-28.244396
1556490790786,0.72786444,8.447446,5.105467,0.030848488,0.014315616,-0.0036854395,9.796027,-27.65855,-28.244396
1556490790793,0.72786444,8.447446,5.105467,0.030848488,0.014315616,-0.0036854395,10.375591,-29.430973,-27.541695
1556490790798,0.8164824,8.504929,5.107862,0.030848488,0.014315616,-0.0036854395,10.375591,-29.430973,-27.541695
1556490790806,0.8164824,8.504929,5.107862,0.035642553,0.0015314389,-0.024992405,10.375591,-29.430973,-27.541695
1556490790813,0.8164824,8.504929,5.107862,0.035642553,0.0015314389,-0.024992405,9.10624,-28.253788,-28.384327
1556490790818,0.6895432,8.42589,5.150974,0.035642553,0.0015314389,-0.024992405,9.10624,-28.253788,-28.384327
1556490790826,0.6895432,8.42589,5.150974,0.037240572,-0.007524019,-0.061214242,9.10624,-28.253788,-28.384327
1556490790833,0.6895432,8.42589,5.150974,0.037240572,-0.007524019,-0.061214242,10.425927,-28.392326,-29.108639
1556490790838,0.6009252,8.4498415,5.239591,0.037240572,-0.007524019,-0.061214242,10.425927,-28.392326,-29.108639
1556490790846,0.6009252,8.4498415,5.239591,0.0127375685,0.051602796,-0.061214242,10.425927,-28.392326,-29.108639
1556490790853,0.6009252,8.4498415,5.239591,0.0127375685,0.051602796,-0.061214242,8.552046,-29.488262,-28.187725
1556490790858,0.6248761,8.507324,5.04559,0.0127375685,0.051602796,-0.061214242,8.552046,-29.488262,-28.187725
1556490790867,0.6248761,8.507324,5.04559,0.014868265,0.093684055,-0.05801819,8.552046,-29.488262,-28.187725
1556490790873,0.6248761,8.507324,5.04559,0.014868265,0.093684055,-0.05801819,7.9003983,-29.308449,-29.882717
1556490790878,0.49554166,8.418706,5.213245,0.014868265,0.093684055,-0.05801819,7.9003983,-29.308449,-29.882717
1556490790886,0.49554166,8.418706,5.213245,0.0026167613,0.108598925,-0.069204345,7.9003983,-29.308449,-29.882717
1556490790893,0.49554166,8.418706,5.213245,0.0026167613,0.108598925,-0.069204345,8.600824,-28.433865,-28.23526
1556490790898,0.40213355,8.344458,5.3066535,0.0026167613,0.108598925,-0.069204345,8.600824,-28.433865,-28.23526
1556490790907,0.40213355,8.344458,5.3066535,0.060145557,0.07290976,-0.04789738,8.600824,-28.433865,-28.23526
1556490790913,0.40213355,8.344458,5.3066535,0.060145557,0.07290976,-0.04789738,9.939736,-28.186451,-29.889042
1556490790927,0.40213355,8.344458,5.3066535,0.14324272,0.067050345,-0.005816134,9.939736,-28.186451,-29.889042
1556490790918,0.6991235,8.514508,4.8946996,0.14324272,0.067050345,-0.005816134,9.939736,-28.186451,-29.889042
1556490790933,0.6991235,8.514508,4.8946996,0.14324272,0.067050345,-0.005816134,9.593209,-28.467537,-28.363628
1556490790938,0.9625823,8.361223,4.583339,0.14324272,0.067050345,-0.005816134,9.593209,-28.467537,-28.363628
1556490790947,0.9625823,8.361223,4.583339,0.15016747,0.14854948,-0.011675551,9.593209,-28.467537,-28.363628
1556490790953,0.9625823,8.361223,4.583339,0.15016747,0.14854948,-0.011675551,9.575384,-28.867657,-28.801628
1556490790958,0.5482334,7.9612455,4.1258793,0.15016747,0.14854948,-0.011675551,9.575384,-28.867657,-28.801628
1556490790967,0.5482334,7.9612455,4.1258793,0.14643875,0.25508428,-0.040972617,9.575384,-28.867657,-28.801628
1556490790973,0.5482334,7.9612455,4.1258793,0.14643875,0.25508428,-0.040972617,10.566993,-28.89346,-28.170284
1556490790978,0.55541867,7.537317,4.1665955,0.14643875,0.25508428,-0.040972617,10.566993,-28.89346,-28.170284
1556490790987,0.55541867,7.537317,4.1665955,0.21195768,0.23377731,-0.021263683,10.566993,-28.89346,-28.170284
1556490790993,0.55541867,7.537317,4.1665955,0.21195768,0.23377731,-0.021263683,9.747715,-28.71767,-28.652687
1556490790999,0.8500135,7.0966225,3.512739,0.21195768,0.23377731,-0.021263683,9.747715,-28.71767,-28.652687
1556490791007,0.8500135,7.0966225,3.512739,0.35577968,0.1911634,0.0037719975,9.747715,-28.71767,-28.652687
1556490791013,0.8500135,7.0966225,3.512739,0.35577968,0.1911634,0.0037719975,9.045266,-29.571781,-28.32491
1556490791018,1.2883132,6.6750884,2.5163856,0.35577968,0.1911634,0.0037719975,9.045266,-29.571781,-28.32491
1556490791027,1.2883132,6.6750884,2.5163856,0.45645505,0.14322273,-0.040439945,9.045266,-29.571781,-28.32491
1556490791033,1.2883132,6.6750884,2.5163856,0.45645505,0.14322273,-0.040439945,9.703477,-29.624516,-27.091686
1556490791039,1.3002886,5.566166,1.6852928,0.45645505,0.14322273,-0.040439945,9.703477,-29.624516,-27.091686
1556490791047,1.3002886,5.566166,1.6852928,0.45911843,0.0782365,-0.1853273,9.703477,-29.624516,-27.091686
1556490791053,1.3002886,5.566166,1.6852928,0.45911843,0.0782365,-0.1853273,10.663818,-30.301437,-25.670933
1556490791059,0.8883348,4.4692197,1.2398081,0.45911843,0.0782365,-0.1853273,10.663818,-30.301437,-25.670933
1556490791068,0.8883348,4.4692197,1.2398081,0.30570832,0.19968617,-0.3216918,10.663818,-30.301437,-25.670933
1556490791073,0.8883348,4.4692197,1.2398081,0.30570832,0.19968617,-0.3216918,11.224423,-28.938316,-26.177357
1556490791079,-0.026585761,3.6189659,0.92844766,0.30570832,0.19968617,-0.3216918,11.224423,-28.938316,-26.177357
1556490791087,-0.026585761,3.6189659,0.92844766,0.088909954,0.4212786,-0.38721076,11.224423,-28.938316,-26.177357
1556490791093,-0.026585761,3.6189659,0.92844766,0.088909954,0.4212786,-0.38721076,12.468762,-30.636402,-24.703194
1556490791099,-0.6996032,2.7160208,0.6913347,0.088909954,0.4212786,-0.38721076,12.468762,-30.636402,-24.703194
1556490791107,-0.6996032,2.7160208,0.6913347,-0.04212786,0.45483708,-0.34726015,12.468762,-30.636402,-24.703194
1556490791113,-0.6996032,2.7160208,0.6913347,-0.04212786,0.45483708,-0.34726015,12.339892,-29.87167,-25.653427
1556490791119,-1.1043718,1.7244576,0.15483679,-0.04212786,0.45483708,-0.34726015,12.339892,-29.87167,-25.653427
1556490791127,-1.1043718,1.7244576,0.15483679,-0.09219922,0.36907655,-0.22474518,12.339892,-29.87167,-25.653427
1556490791133,-1.1043718,1.7244576,0.15483679,-0.09219922,0.36907655,-0.22474518,12.486276,-30.233131,-23.961315
1556490791139,-0.874444,0.6083503,-0.2666973,-0.09219922,0.36907655,-0.22474518,12.486276,-30.233131,-23.961315
1556490791147,-0.874444,0.6083503,-0.2666973,-0.19234194,0.25614962,-0.079857826,12.486276,-30.233131,-23.961315
1556490791153,-0.874444,0.6083503,-0.2666973,-0.19234194,0.25614962,-0.079857826,11.799603,-30.859863,-27.14006
1556490791159,-0.079277515,-0.7831912,-0.3936365,-0.19234194,0.25614962,-0.079857826,11.799603,-30.859863,-27.14006
1556490791168,-0.079277515,-0.7831912,-0.3936365,-0.36173227,-0.024569588,-0.055887494,11.799603,-30.859863,-27.14006
1556490791173,-0.079277515,-0.7831912,-0.3936365,-0.36173227,-0.024569588,-0.055887494,13.4311285,-31.333794,-25.257671
1556490791179,-1.3055584,-2.1340163,0.5739758,-0.36173227,-0.024569588,-0.055887494,13.4311285,-31.333794,-25.257671
1556490791188,-1.3055584,-2.1340163,0.5739758,-0.71010107,-0.3260631,-0.17147776,13.4311285,-31.333794,-25.257671
1556490791193,-1.3055584,-2.1340163,0.5739758,-0.71010107,-0.3260631,-0.17147776,12.907731,-31.912418,-25.394665
1556490791199,-3.3509567,-2.8118238,3.4768126,-0.71010107,-0.3260631,-0.17147776,12.907731,-31.912418,-25.394665
1556490791208,-3.3509567,-2.8118238,3.4768126,-1.0973552,-0.27652442,-0.028188447,12.907731,-31.912418,-25.394665
1556490791213,-3.3509567,-2.8118238,3.4768126,-1.0973552,-0.27652442,-0.028188447,13.432218,-31.344818,-26.321259
1556490791219,-2.637223,-1.8490016,3.002587,-1.0973552,-0.27652442,-0.028188447,13.432218,-31.344818,-26.321259
1556490791228,-2.637223,-1.8490016,3.002587,-1.2449058,0.07663848,0.5252599,13.432218,-31.344818,-26.321259
1556490791233,-2.637223,-1.8490016,3.002587,-1.2449058,0.07663848,0.5252599,9.731336,-32.65661,-28.623436
1556490791239,-0.13196927,0.0071852,2.4229774,-1.2449058,0.07663848,0.5252599,9.731336,-32.65661,-28.623436
1556490791248,-0.13196927,0.0071852,2.4229774,-1.5293539,0.18850002,0.9577912,9.731336,-32.65661,-28.623436
1556490791253,-0.13196927,0.0071852,2.4229774,-1.5293539,0.18850002,0.9577912,10.385627,-32.863186,-29.51144
1556490791259,0.80690205,0.9101303,3.8528402,-1.5293539,0.18850002,0.9577912,10.385627,-32.863186,-29.51144
1556490791269,0.80690205,0.9101303,3.8528402,-1.965614,-0.020308198,1.0217121,10.385627,-32.863186,-29.51144
1556490791273,0.80690205,0.9101303,3.8528402,-1.965614,-0.020308198,1.0217121,7.7800064,-31.960182,-31.28329
1556490791280,1.7816995,3.147135,6.2886367,-1.965614,-0.020308198,1.0217121,7.7800064,-31.960182,-31.28329
1556490791288,1.7816995,3.147135,6.2886367,-2.2692382,-0.23923725,1.0291694,7.7800064,-31.960182,-31.28329
1556490791293,1.7816995,3.147135,6.2886367,-2.2692382,-0.23923725,1.0291694,3.3519306,-31.125484,-34.764755
1556490791300,2.0164175,4.457244,6.6598735,-2.2692382,-0.23923725,1.0291694,3.3519306,-31.125484,-34.764755
1556490791308,2.0164175,4.457244,6.6598735,-2.4519455,-0.2296491,0.99774176,3.3519306,-31.125484,-34.764755
1556490791313,2.0164175,4.457244,6.6598735,-2.4519455,-0.2296491,0.99774176,1.1264687,-29.120682,-35.210793
1556490791320,2.9816344,5.5158696,8.051416,-2.4519455,-0.2296491,0.99774176,1.1264687,-29.120682,-35.210793
1556490791328,2.9816344,5.5158696,8.051416,-2.815229,-0.2727957,0.98762107,1.1264687,-29.120682,-35.210793
1556490791333,2.9816344,5.5158696,8.051416,-2.815229,-0.2727957,0.98762107,-2.293932,-24.369701,-37.78629
1556490791340,3.980383,7.1038074,10.951858,-2.815229,-0.2727957,0.98762107,-2.293932,-24.369701,-37.78629
1556490791348,3.980383,7.1038074,10.951858,-3.0165799,-0.8448877,0.8107732,-2.293932,-24.369701,-37.78629
1556490791352,3.980383,7.1038074,10.951858,-3.0165799,-0.8448877,0.8107732,-3.714693,-19.256023,-37.293644
1556490791360,4.701302,8.080999,17.23415,-3.0165799,-0.8448877,0.8107732,-3.714693,-19.256023,-37.293644
1556490791369,4.701302,8.080999,17.23415,-3.0133836,-1.5538768,0.582256,-3.714693,-19.256023,-37.293644
1556490791373,4.701302,8.080999,17.23415,-3.0133836,-1.5538768,0.582256,-2.4848213,-14.146375,-37.34986
1556490791380,4.1025324,8.076209,22.201546,-3.0133836,-1.5538768,0.582256,-2.4848213,-14.146375,-37.34986
1556490791388,4.1025324,8.076209,22.201546,-2.8088372,-1.2438605,0.51833516,-2.4848213,-14.146375,-37.34986
1556490791393,4.1025324,8.076209,22.201546,-2.8088372,-1.2438605,0.51833516,-0.51182175,-10.9574,-39.885246
1556490791400,3.9276912,8.907303,21.918928,-2.8088372,-1.2438605,0.51833516,-0.51182175,-10.9574,-39.885246
1556490791409,3.9276912,8.907303,21.918928,-2.3427472,-0.28611255,0.77135533,-0.51182175,-10.9574,-39.885246
1556490791413,3.9276912,8.907303,21.918928,-2.3427472,-0.28611255,0.77135533,0.360775,-9.931251,-37.936913
1556490791420,4.9264393,10.96228,18.165838,-2.3427472,-0.28611255,0.77135533,0.360775,-9.931251,-37.936913
1556490791429,4.9264393,10.96228,18.165838,-1.6960808,0.062256277,0.9535299,0.360775,-9.931251,-37.936913
1556490791433,4.9264393,10.96228,18.165838,-1.6960808,0.062256277,0.9535299,1.1565514,-7.1190405,-40.17711
1556490791440,6.212597,12.308315,15.737227,-1.6960808,0.062256277,0.9535299,1.1565514,-7.1190405,-40.17711
1556490791449,6.212597,12.308315,15.737227,-1.2369157,-0.18383913,0.6893235,1.1565514,-7.1190405,-40.17711
1556490791453,6.212597,12.308315,15.737227,-1.2369157,-0.18383913,0.6893235,1.3939018,-5.6919994,-44.03805
1556490791460,5.4365916,11.383815,14.259462,-1.2369157,-0.18383913,0.6893235,1.3939018,-5.6919994,-44.03805
1556490791469,5.4365916,11.383815,14.259462,-1.1426325,-0.14601928,0.17582572,1.3939018,-5.6919994,-44.03805
1556490791473,5.4365916,11.383815,14.259462,-1.1426325,-0.14601928,0.17582572,2.7911453,-4.099825,-43.168255
1556490791480,3.800752,9.379132,12.479919,-1.1426325,-0.14601928,0.17582572,2.7911453,-4.099825,-43.168255
1556490791489,3.800752,9.379132,12.479919,-1.1788543,0.21247035,-0.16402033,2.7911453,-4.099825,-43.168255
1556490791493,3.800752,9.379132,12.479919,-1.1788543,0.21247035,-0.16402033,1.6866245,-2.890276,-42.488537
1556490791500,2.1146157,8.080999,11.069217,-1.1788543,0.21247035,-0.16402033,1.6866245,-2.890276,-42.488537
1556490791509,2.1146157,8.080999,11.069217,-1.0962898,0.2630744,-0.24924818,1.6866245,-2.890276,-42.488537
1556490791513,2.1146157,8.080999,11.069217,-1.0962898,0.2630744,-0.24924818,2.4206467,-1.3881884,-43.909615
1556490791521,3.2738345,7.8965783,12.551772,-1.0962898,0.2630744,-0.24924818,2.4206467,-1.3881884,-43.909615
1556490791529,3.2738345,7.8965783,12.551772,-0.9652519,-0.17158763,-0.12726583,2.4206467,-1.3881884,-43.909615
1556490791533,3.2738345,7.8965783,12.551772,-0.9652519,-0.17158763,-0.12726583,2.0823975,-1.5595207,-44.517315
1556490791541,4.519276,7.417563,14.134919,-0.9652519,-0.17158763,-0.12726583,2.0823975,-1.5595207,-44.517315
1556490791549,4.519276,7.417563,14.134919,-0.8006557,-0.3463047,-0.16242233,2.0823975,-1.5595207,-44.517315
1556490791553,4.519276,7.417563,14.134919,-0.8006557,-0.3463047,-0.16242233,1.131916,-0.5953779,-43.67083
1556490791570,4.519276,7.417563,14.134919,-0.6264713,-0.06718352,-0.32755122,1.131916,-0.5953779,-43.67083
1556490791561,4.0163093,6.1457753,13.916966,-0.6264713,-0.06718352,-0.32755122,1.131916,-0.5953779,-43.67083
1556490791573,4.0163093,6.1457753,13.916966,-0.6264713,-0.06718352,-0.32755122,0.78189087,2.4896111,-46.557186
1556490791581,3.7504554,5.000927,13.241554,-0.6264713,-0.06718352,-0.32755122,0.78189087,2.4896111,-46.557186
1556490791589,3.7504554,5.000927,13.241554,-0.46560374,0.25828034,-0.3733612,0.78189087,2.4896111,-46.557186
1556490791593,3.7504554,5.000927,13.241554,-0.46560374,0.25828034,-0.3733612,1.2454033,1.7392168,-47.424366
1556490791601,3.7049487,4.399762,11.785345,-0.46560374,0.25828034,-0.3733612,1.2454033,1.7392168,-47.424366
1556490791610,3.7049487,4.399762,11.785345,-0.26744896,0.37280524,-0.31689775,1.2454033,1.7392168,-47.424366
1556490791613,3.7049487,4.399762,11.785345,-0.26744896,0.37280524,-0.31689775,-1.8058567,0.26809216,-46.056324
1556490791621,4.615079,3.9159558,11.19376,-0.26744896,0.37280524,-0.31689775,-1.8058567,0.26809216,-46.056324
1556490791630,4.615079,3.9159558,11.19376,-0.090601206,0.22525455,-0.24711746,-1.8058567,0.26809216,-46.056324
1556490791633,4.615079,3.9159558,11.19376,-0.090601206,0.22525455,-0.24711746,1.033844,0.8252001,-44.954655
1556490791641,5.632988,3.9758327,9.818985,-0.090601206,0.22525455,-0.24711746,1.033844,0.8252001,-44.954655
1556490791650,5.632988,3.9758327,9.818985,0.0798545,0.087824635,-0.23166993,1.033844,0.8252001,-44.954655
1556490791653,5.632988,3.9758327,9.818985,0.0798545,0.087824635,-0.23166993,2.891302,1.5068378,-47.68104
1556490791661,6.27966,4.852432,8.415468,0.0798545,0.087824635,-0.23166993,2.891302,1.5068378,-47.68104
1556490791670,6.27966,4.852432,8.415468,0.08198519,0.08729196,-0.2891987,2.891302,1.5068378,-47.68104
1556490791673,6.27966,4.852432,8.415468,0.08198519,0.08729196,-0.2891987,0.71936035,1.1873646,-44.97836
1556490791681,7.702337,5.570956,8.90646,0.08198519,0.08729196,-0.2891987,0.71936035,1.1873646,-44.97836
1556490791690,7.702337,5.570956,8.90646,0.055884168,-0.1598688,-0.40851766,0.71936035,1.1873646,-44.97836
1556490791693,7.702337,5.570956,8.90646,0.055884168,-0.1598688,-0.40851766,3.7218418,1.6040945,-46.29887
1556490791711,7.702337,5.570956,8.90646,0.13471992,-0.5050416,-0.62957746,3.7218418,1.6040945,-46.29887
1556490791701,8.96694,5.633228,10.278839,0.13471992,-0.5050416,-0.62957746,3.7218418,1.6040945,-46.29887
1556490791713,8.96694,5.633228,10.278839,0.13471992,-0.5050416,-0.62957746,0.98052406,-0.3767414,-46.42059
1556490791722,9.963293,5.336238,10.54709,0.13471992,-0.5050416,-0.62957746,0.98052406,-0.3767414,-46.42059
1556490791730,9.963293,5.336238,10.54709,0.15283085,-0.45497024,-0.8847283,0.98052406,-0.3767414,-46.42059
1556490791733,9.963293,5.336238,10.54709,0.15283085,-0.45497024,-0.8847283,1.0532246,1.2095747,-46.036076
1556490791751,9.963293,5.336238,10.54709,0.12619714,-0.32819378,-1.1622515,1.0532246,1.2095747,-46.036076
1556490791741,11.855406,5.2667804,11.30633,0.12619714,-0.32819378,-1.1622515,1.0532246,1.2095747,-46.036076
1556490791753,11.855406,5.2667804,11.30633,0.12619714,-0.32819378,-1.1622515,2.5121078,0.5888014,-43.99874
1556490791762,12.717635,4.8332715,11.586555,0.12619714,-0.32819378,-1.1622515,2.5121078,0.5888014,-43.99874
1556490791770,12.717635,4.8332715,11.586555,0.30091426,-0.35962155,-1.5628226,2.5121078,0.5888014,-43.99874
1556490791773,12.717635,4.8332715,11.586555,0.30091426,-0.35962155,-1.5628226,0.627121,-0.78175163,-44.129528
1556490791791,12.717635,4.8332715,11.586555,0.55926114,-0.36601368,-1.9266388,0.627121,-0.78175163,-44.129528
1556490791781,13.151144,4.557837,9.984245,0.55926114,-0.36601368,-1.9266388,0.627121,-0.78175163,-44.129528
1556490791793,13.151144,4.557837,9.984245,0.55926114,-0.36601368,-1.9266388,0.5867748,-1.7279682,-46.367054
1556490791802,12.866131,3.3052104,7.7951417,0.55926114,-0.36601368,-1.9266388,0.5867748,-1.7279682,-46.367054
1556490791810,12.866131,3.3052104,7.7951417,0.64768505,-0.30049473,-2.3549087,0.5867748,-1.7279682,-46.367054
1556490791813,12.866131,3.3052104,7.7951417,0.64768505,-0.30049473,-2.3549087,1.7016182,-2.6550217,-45.235363
1556490791822,11.685356,2.4070551,5.5078406,0.64768505,-0.30049473,-2.3549087,1.7016182,-2.6550217,-45.235363
1556490791830,11.685356,2.4070551,5.5078406,0.5518037,-0.4118236,-2.7432282,1.7016182,-2.6550217,-45.235363
1556490791833,11.685356,2.4070551,5.5078406,0.5518037,-0.4118236,-2.7432282,2.3898487,-2.044036,-43.57602
1556490791842,9.069929,1.5711724,5.419222,0.5518037,-0.4118236,-2.7432282,2.3898487,-2.044036,-43.57602
1556490791850,9.069929,1.5711724,5.419222,0.32967865,-0.873652,-3.0697575,2.3898487,-2.044036,-43.57602
1556490791853,9.069929,1.5711724,5.419222,0.32967865,-0.873652,-3.0697575,1.9893799,-3.5207634,-42.908775
1556490791862,4.4689794,-0.03353116,7.361632,0.32967865,-0.873652,-3.0697575,1.9893799,-3.5207634,-42.908775
1556490791870,4.4689794,-0.03353116,7.361632,0.063874274,-1.2657002,-3.263651,1.9893799,-3.5207634,-42.908775
1556490791873,4.4689794,-0.03353116,7.361632,0.063874274,-1.2657002,-3.263651,1.2811451,-4.5098257,-42.878937
1556490791882,0.9482118,0.02395076,8.444209,0.063874274,-1.2657002,-3.263651,1.2811451,-4.5098257,-42.878937
1556490791891,0.9482118,0.02395076,8.444209,-0.2077895,-1.275821,-3.0122283,1.2811451,-4.5098257,-42.878937
1556490791893,0.9482118,0.02395076,8.444209,-0.2077895,-1.275821,-3.0122283,1.5772915,-1.7427444,-44.67213
1556490791902,0.802112,2.0525835,9.629773,-0.2077895,-1.275821,-3.0122283,1.5772915,-1.7427444,-44.67213
1556490791911,0.802112,2.0525835,9.629773,-0.35800356,-1.5315045,-2.6649249,1.5772915,-1.7427444,-44.67213
1556490791913,0.802112,2.0525835,9.629773,-0.35800356,-1.5315045,-2.6649249,0.24354362,-1.8489094,-42.11264
1556490791931,0.802112,2.0525835,9.629773,-0.42884922,-1.9256833,-2.7586756,0.24354362,-1.8489094,-42.11264
1556490791922,0.22250256,1.4202824,12.896663,-0.42884922,-1.9256833,-2.7586756,0.24354362,-1.8489094,-42.11264
1556490791932,0.22250256,1.4202824,12.896663,-0.42884922,-1.9256833,-2.7586756,-1.1110172,-2.5184898,-43.024033
1556490791942,-3.3150306,-0.8909698,14.657046,-0.42884922,-1.9256833,-2.7586756,-1.1110172,-2.5184898,-43.024033
1556490791951,-3.3150306,-0.8909698,14.657046,-0.47359383,-1.667869,-2.9168797,-1.1110172,-2.5184898,-43.024033
1556490791953,-3.3150306,-0.8909698,14.657046,-0.47359383,-1.667869,-2.9168797,-1.641758,-3.2163134,-41.939552
1556490791963,-7.0800962,-1.5831479,14.197191,-0.47359383,-1.667869,-2.9168797,-1.641758,-3.2163134,-41.939552
1556490791971,-7.0800962,-1.5831479,14.197191,-0.45548287,-1.0989732,-2.7347052,-1.641758,-3.2163134,-41.939552
1556490791973,-7.0800962,-1.5831479,14.197191,-0.45548287,-1.0989732,-2.7347052,-3.0962582,-2.4464188,-42.311478
1556490791982,-9.216507,-1.496925,13.679854,-0.45548287,-1.0989732,-2.7347052,-3.0962582,-2.4464188,-42.311478
1556490791991,-9.216507,-1.496925,13.679854,-0.2642529,-0.9349096,-2.342657,-3.0962582,-2.4464188,-42.311478
1556490791993,-9.216507,-1.496925,13.679854,-0.2642529,-0.9349096,-2.342657,-2.7939682,-3.0721817,-42.27589
1556490792012,-9.216507,-1.496925,13.679854,0.085181236,-0.9562166,-1.7705654,-2.7939682,-3.0721817,-42.27589
1556490792002,-10.588889,-2.3807094,13.936127,0.085181236,-0.9562166,-1.7705654,-2.7939682,-3.0721817,-42.27589
1556490792012,-10.588889,-2.3807094,13.936127,0.085181236,-0.9562166,-1.7705654,-6.405411,-2.386507,-42.69196
1556490792023,-9.944612,-1.798705,12.300288,0.085181236,-0.9562166,-1.7705654,-6.405411,-2.386507,-42.69196
1556490792031,-9.944612,-1.798705,12.300288,0.50333035,-0.8795115,-0.8996431,-6.405411,-2.386507,-42.69196
1556490792032,-9.944612,-1.798705,12.300288,0.50333035,-0.8795115,-0.8996431,-2.6754246,-4.1194077,-43.137062
1556490792043,-7.904004,0.31136036,8.999867,0.50333035,-0.8795115,-0.8996431,-2.6754246,-4.1194077,-43.137062
1556490792051,-7.904004,0.31136036,8.999867,0.71160597,-0.76605195,-0.12673315,-2.6754246,-4.1194077,-43.137062
1556490792052,-7.904004,0.31136036,8.999867,0.71160597,-0.76605195,-0.12673315,-4.4700413,-3.5019493,-42.293396
1556490792063,-5.85142,1.3364546,7.4598303,0.71160597,-0.76605195,-0.12673315,-4.4700413,-3.5019493,-42.293396
1556490792071,-5.85142,1.3364546,7.4598303,0.6306395,-0.8667273,0.24773669,-4.4700413,-3.5019493,-42.293396
1556490792072,-5.85142,1.3364546,7.4598303,0.6306395,-0.8667273,0.24773669,-4.975458,-3.682024,-42.144325
1556490792083,-3.7245893,1.4490234,7.694548,0.6306395,-0.8667273,0.24773669,-4.975458,-3.682024,-42.144325
1556490792091,-3.7245893,1.4490234,7.694548,0.46710852,-0.85394317,0.40487558,-4.975458,-3.682024,-42.144325
1556490792092,-3.7245893,1.4490234,7.694548,0.46710852,-0.85394317,0.40487558,-5.6225643,-3.3546677,-42.32585
1556490792103,-1.8660071,2.8261943,6.3437233,0.46710852,-0.85394317,0.40487558,-5.6225643,-3.3546677,-42.32585
1556490792112,-1.8660071,2.8261943,6.3437233,0.38880545,-0.59612894,0.5082143,-5.6225643,-3.3546677,-42.32585
1556490792112,-1.8660071,2.8261943,6.3437233,0.38880545,-0.59612894,0.5082143,-5.8688393,-5.078377,-41.643784
1556490792123,-0.076882444,4.5961585,5.4216175,0.38880545,-0.59612894,0.5082143,-5.8688393,-5.078377,-41.643784
1556490792132,-0.076882444,4.5961585,5.4216175,0.22687255,-0.54179615,0.44908753,-5.8688393,-5.078377,-41.643784
1556490792133,-0.076882444,4.5961585,5.4216175,0.22687255,-0.54179615,0.44908753,-7.402605,-6.0218744,-41.938465
1556490792152,-0.076882444,4.5961585,5.4216175,-0.11457154,-0.59932494,0.17582572,-7.402605,-6.0218744,-41.938465
1556490792143,0.97216266,4.739863,7.7855616,-0.11457154,-0.59932494,0.17582572,-7.402605,-6.0218744,-41.938465
1556490792153,0.97216266,4.739863,7.7855616,-0.11457154,-0.59932494,0.17582572,-9.732813,-6.2466364,-41.219902
1556490792163,1.04641,4.4285026,10.398594,-0.11457154,-0.59932494,0.17582572,-9.732813,-6.2466364,-41.219902
1556490792172,1.04641,4.4285026,10.398594,-0.32604313,-0.37027508,-0.013806247,-9.732813,-6.2466364,-41.219902
1556490792173,1.04641,4.4285026,10.398594,-0.32604313,-0.37027508,-0.013806247,-8.175127,-4.7712173,-40.493168
1556490792184,1.2978934,5.7889085,10.4081745,-0.32604313,-0.37027508,-0.013806247,-8.175127,-4.7712173,-40.493168
1556490792192,1.2978934,5.7889085,10.4081745,-0.27117768,0.004727483,0.0027066502,-8.175127,-4.7712173,-40.493168
1556490792192,1.2978934,5.7889085,10.4081745,-0.27117768,0.004727483,0.0027066502,-8.1931095,-5.1697655,-40.77922
1556490792203,1.5086604,7.510971,10.568645,-0.27117768,0.004727483,0.0027066502,-8.1931095,-5.1697655,-40.77922
1556490792212,1.5086604,7.510971,10.568645,-0.17210032,0.11978508,-0.0036854395,-8.1931095,-5.1697655,-40.77922
1556490792212,1.5086604,7.510971,10.568645,-0.17210032,0.11978508,-0.0036854395,-6.5109367,-4.608199,-40.76766
1556490792233,1.5086604,7.510971,10.568645,-0.1028527,0.11712172,-0.08411922,-6.5109367,-4.608199,-40.76766
1556490792223,1.3386098,8.492953,11.986531,-0.1028527,0.11712172,-0.08411922,-6.5109367,-4.608199,-40.76766
1556490792232,1.3386098,8.492953,11.986531,-0.1028527,0.11712172,-0.08411922,-8.19124,-5.1886616,-42.602512
1556490792243,0.7542103,9.163575,12.812835,-0.1028527,0.11712172,-0.08411922,-8.19124,-5.1886616,-42.602512
1556490792252,0.7542103,9.163575,12.812835,0.015400939,0.24123475,-0.13632129,-8.19124,-5.1886616,-42.602512
1556490792252,0.7542103,9.163575,12.812835,0.015400939,0.24123475,-0.13632129,-6.7997837,-3.7314348,-42.03066
1556490792272,0.7542103,9.163575,12.812835,0.10009611,0.48040542,-0.050560754,-6.7997837,-3.7314348,-42.03066
1556490792263,0.13388458,10.689241,12.925404,0.10009611,0.48040542,-0.050560754,-6.7997837,-3.7314348,-42.03066
1556490792273,0.13388458,10.689241,12.925404,0.10009611,0.48040542,-0.050560754,-7.003067,-4.535698,-41.694065
1556490792284,0.5602088,13.053185,15.753994,0.10009611,0.48040542,-0.050560754,-7.003067,-4.535698,-41.694065
1556490792292,0.5602088,13.053185,15.753994,0.19597743,0.4921243,-0.03511321,-7.003067,-4.535698,-41.694065
1556490792293,0.5602088,13.053185,15.753994,0.19597743,0.4921243,-0.03511321,-5.536373,-5.041994,-41.334023
1556490792303,-0.055326723,13.46993,18.94903,0.19597743,0.4921243,-0.03511321,-5.536373,-5.041994,-41.334023
1556490792313,-0.055326723,13.46993,18.94903,0.5603265,0.2423001,-0.2583036,-5.536373,-5.041994,-41.334023
1556490792313,-0.055326723,13.46993,18.94903,0.5603265,0.2423001,-0.2583036,-7.0193367,-4.9515667,-43.651466
1556490792324,0.038081393,12.770566,18.505938,0.5603265,0.2423001,-0.2583036,-7.0193367,-4.9515667,-43.651466
1556490792333,0.038081393,12.770566,18.505938,1.0642362,0.41222313,-0.34299877,-7.0193367,-4.9515667,-43.651466
1556490792333,0.038081393,12.770566,18.505938,1.0642362,0.41222313,-0.34299877,-6.335491,-4.489702,-43.65754
1556490792344,1.0655706,13.958526,15.344435,1.0642362,0.41222313,-0.34299877,-6.335491,-4.489702,-43.65754
1556490792353,1.0655706,13.958526,15.344435,1.294884,1.0935133,-0.28866604,-6.335491,-4.489702,-43.65754
1556490792353,1.0655706,13.958526,15.344435,1.294884,1.0935133,-0.28866604,-6.002983,-7.9779634,-41.513065
1556490792364,1.5062653,13.829191,14.666626,1.294884,1.0935133,-0.28866604,-6.002983,-7.9779634,-41.513065
1556490792373,1.5062653,13.829191,14.666626,1.3412266,1.3007234,-0.47297126,-6.002983,-7.9779634,-41.513065
1556490792373,1.5062653,13.829191,14.666626,1.3412266,1.3007234,-0.47297126,-6.469324,-7.392436,-43.830704
1556490792393,1.5062653,13.829191,14.666626,1.3412266,1.3007234,-0.47297126,-2.0515747,-8.509627,-42.160645
1556490792384,1.1589788,11.99456,14.676207,1.3412266,1.3007234,-0.47297126,-2.0515747,-8.509627,-42.160645
1556490792393,1.1589788,11.99456,14.676207,1.3598702,1.1989828,-0.73025286,-2.0515747,-8.509627,-42.160645
1556490792413,1.1589788,11.99456,14.676207,1.3598702,1.1989828,-0.73025286,-3.2775745,-9.940789,-41.817913
1556490792404,0.7949267,9.918026,13.866671,1.3598702,1.1989828,-0.73025286,-3.2775745,-9.940789,-41.817913
1556490792413,0.7949267,9.918026,13.866671,1.3710563,1.3667752,-0.74516773,-3.2775745,-9.940789,-41.817913
1556490792433,0.7949267,9.918026,13.866671,1.3710563,1.3667752,-0.74516773,-0.8851013,-11.935273,-41.976707
1556490792424,1.6954768,11.079639,11.888334,1.3710563,1.3667752,-0.74516773,-0.8851013,-11.935273,-41.976707
1556490792433,1.6954768,11.079639,11.888334,1.4813199,1.384886,-0.5491437,-0.8851013,-11.935273,-41.976707
1556490792453,1.6954768,11.079639,11.888334,1.4813199,1.384886,-0.5491437,0.29072,-11.544335,-40.904427
1556490792444,2.996005,11.146702,11.809297,1.4813199,1.384886,-0.5491437,0.29072,-11.544335,-40.904427
1556490792453,2.996005,11.146702,11.809297,1.6128905,0.6039858,-0.7403737,0.29072,-11.544335,-40.904427
1556490792473,2.996005,11.146702,11.809297,1.6128905,0.6039858,-0.7403737,1.3216038,-14.330752,-41.057022
1556490792464,4.5911283,8.6869545,12.214065,1.6128905,0.6039858,-0.7403737,1.3216038,-14.330752,-41.057022
1556490792473,4.5911283,8.6869545,12.214065,1.6001061,0.11818706,-1.0828831,1.3216038,-14.330752,-41.057022
1556490792493,4.5911283,8.6869545,12.214065,1.6001061,0.11818706,-1.0828831,2.5193405,-17.105274,-41.6625
1556490792485,3.4989722,5.182953,11.021315,1.6001061,0.11818706,-1.0828831,2.5193405,-17.105274,-41.6625
1556490792493,3.4989722,5.182953,11.021315,1.482918,0.50064707,-1.2959528,2.5193405,-17.105274,-41.6625
1556490792513,3.4989722,5.182953,11.021315,1.482918,0.50064707,-1.2959528,4.12632,-18.104832,-39.6044
1556490792505,0.3709975,1.5424315,8.889694,1.482918,0.50064707,-1.2959528,4.12632,-18.104832,-39.6044
1556490792513,0.3709975,1.5424315,8.889694,1.1867511,1.0082854,-1.1489346,4.12632,-18.104832,-39.6044
1556490792533,0.3709975,1.5424315,8.889694,1.1867511,1.0082854,-1.1489346,5.42647,-18.626167,-39.095356
1556490792525,0.20334193,-1.3029236,9.749528,1.1867511,1.0082854,-1.1489346,5.42647,-18.626167,-39.095356
1556490792534,0.20334193,-1.3029236,9.749528,0.9715509,1.1574341,-0.6317081,5.42647,-18.626167,-39.095356
1556490792553,0.20334193,-1.3029236,9.749528,0.9715509,1.1574341,-0.6317081,6.405262,-18.909267,-37.84437
1556490792545,-0.23974788,-3.384248,8.137639,0.9715509,1.1574341,-0.6317081,6.405262,-18.909267,-37.84437
1556490792554,-0.23974788,-3.384248,8.137639,1.6379261,0.9225248,-0.08358655,6.405262,-18.909267,-37.84437
1556490792573,-0.23974788,-3.384248,8.137639,1.6379261,0.9225248,-0.08358655,6.0916023,-22.07962,-36.793064
1556490792565,0.97216266,-2.4956734,1.8840845,1.6379261,0.9225248,-0.08358655,6.0916023,-22.07962,-36.793064
1556490792574,0.97216266,-2.4956734,1.8840845,2.633494,0.2966329,0.5252599,6.0916023,-22.07962,-36.793064
1556490792592,0.97216266,-2.4956734,1.8840845,2.633494,0.2966329,0.5252599,3.331215,-24.447979,-36.13725
1556490792585,1.9565405,0.0023950394,-2.2234776,2.633494,0.2966329,0.5252599,3.331215,-24.447979,-36.13725
1556490792594,1.9565405,0.0023950394,-2.2234776,2.7565413,-0.98764426,0.63179475,3.331215,-24.447979,-36.13725
1556490792612,1.9565405,0.0023950394,-2.2234776,2.7565413,-0.98764426,0.63179475,1.2903194,-25.55423,-34.611515
1556490792605,2.4355564,-1.3987267,1.4865012,2.7565413,-0.98764426,0.63179475,1.2903194,-25.55423,-34.611515
1556490792614,2.4355564,-1.3987267,1.4865012,1.8270254,-1.5885006,0.4192578,1.2903194,-25.55423,-34.611515
1556490792633,2.4355564,-1.3987267,1.4865012,1.8270254,-1.5885006,0.4192578,1.5801029,-26.440437,-34.260162
1556490792625,3.3385017,-1.4705791,1.8529485,1.8270254,-1.5885006,0.4192578,1.5801029,-26.440437,-34.260162
1556490792634,3.3385017,-1.4705791,1.8529485,1.1585194,-0.44857815,0.5982363,1.5801029,-26.440437,-34.260162
1556490792653,3.3385017,-1.4705791,1.8529485,1.1585194,-0.44857815,0.5982363,3.0843124,-26.16539,-34.84742
1556490792645,3.3840082,1.9903115,-0.34333983,1.1585194,-0.44857815,0.5982363,3.0843124,-26.16539,-34.84742
1556490792654,3.3840082,1.9903115,-0.34333983,1.1164382,-0.024036916,0.7585712,3.0843124,-26.16539,-34.84742
1556490792673,3.3840082,1.9903115,-0.34333983,1.1164382,-0.024036916,0.7585712,0.6853218,-27.82262,-32.39215
1556490792665,4.6342397,4.1602535,0.7320511,1.1164382,-0.024036916,0.7585712,0.6853218,-27.82262,-32.39215
1556490792674,4.6342397,4.1602535,0.7320511,1.0956639,-1.0025591,0.36172897,0.6853218,-27.82262,-32.39215
1556490792693,4.6342397,4.1602535,0.7320511,1.0956639,-1.0025591,0.36172897,-2.0022106,-28.606243,-31.503757
1556490792685,3.2450933,2.7016501,2.406212,1.0956639,-1.0025591,0.36172897,-2.0022106,-28.606243,-31.503757
1556490792694,3.2450933,2.7016501,2.406212,0.84370905,-1.1618286,-0.3488582,-2.0022106,-28.606243,-31.503757
1556490792713,3.2450933,2.7016501,2.406212,0.84370905,-1.1618286,-0.3488582,0.5926151,-29.78701,-31.087494
1556490792706,1.0440149,2.0549786,1.6158355,0.84370905,-1.1618286,-0.3488582,0.5926151,-29.78701,-31.087494
1556490792714,1.0440149,2.0549786,1.6158355,0.49960166,-0.028298305,-0.626914,0.5926151,-29.78701,-31.087494
1556490792733,1.0440149,2.0549786,1.6158355,0.49960166,-0.028298305,-0.626914,0.29079247,-29.165974,-31.578907
1556490792725,-1.5833879,3.3100004,0.37757924,0.49960166,-0.028298305,-0.626914,0.29079247,-29.165974,-31.578907
1556490792734,-1.5833879,3.3100004,0.37757924,0.38401142,0.5730907,-0.5832347,0.29079247,-29.165974,-31.578907
1556490792753,-1.5833879,3.3100004,0.37757924,0.38401142,0.5730907,-0.5832347,0.3894863,-30.59285,-30.90284
1556490792746,-2.665964,4.184205,0.2745908,0.38401142,0.5730907,-0.5832347,0.3894863,-30.59285,-30.90284
1556490792754,-2.665964,4.184205,0.2745908,0.48468676,0.029230488,-0.49694157,0.3894863,-30.59285,-30.90284
1556490792773,-2.665964,4.184205,0.2745908,0.48468676,0.029230488,-0.49694157,0.11690712,-29.300217,-30.208431
1556490792766,-3.3341913,3.9039805,1.2901046,0.48468676,0.029230488,-0.49694157,0.11690712,-29.300217,-30.208431
1556490792774,-3.3341913,3.9039805,1.2901046,0.46977195,-0.54286146,-0.37282854,0.11690712,-29.300217,-30.208431
1556490792793,-3.3341913,3.9039805,1.2901046,0.46977195,-0.54286146,-0.37282854,-0.6330757,-31.221321,-31.048649
1556490792786,-3.0156455,4.1746244,2.20263,0.46977195,-0.54286146,-0.37282854,-0.6330757,-31.221321,-31.048649
1556490792794,-3.0156455,4.1746244,2.20263,0.37069455,-0.48160392,-0.0393746,-0.6330757,-31.221321,-31.048649
1556490792813,-3.0156455,4.1746244,2.20263,0.37069455,-0.48160392,-0.0393746,-2.1360416,-31.508972,-31.676918
1556490792806,-1.4684238,5.9877,2.6960168,0.37069455,-0.48160392,-0.0393746,-2.1360416,-31.508972,-31.676918
1556490792815,-1.4684238,5.9877,2.6960168,0.42183128,-0.33937994,0.27916452,-2.1360416,-31.508972,-31.676918
1556490792833,-1.4684238,5.9877,2.6960168,0.42183128,-0.33937994,0.27916452,0.57901955,-30.036438,-29.708145
1556490792826,-0.38824284,7.63791,2.6624858,0.42183128,-0.33937994,0.27916452,0.57901955,-30.036438,-29.708145
1556490792835,-0.38824284,7.63791,2.6624858,0.4948076,-0.28664523,0.3244418,0.57901955,-30.036438,-29.708145
1556490792853,-0.38824284,7.63791,2.6624858,0.4948076,-0.28664523,0.3244418,-0.7381325,-33.44774,-29.580173
1556490792846,-0.3116003,8.605521,1.481711,0.4948076,-0.28664523,0.3244418,-0.7381325,-33.44774,-29.580173
1556490792855,-0.3116003,8.605521,1.481711,0.34885493,-0.040017135,0.20245941,-0.7381325,-33.44774,-29.580173
1556490792873,-0.3116003,8.605521,1.481711,0.34885493,-0.040017135,0.20245941,-0.27167892,-30.510197,-29.249191
1556490792866,-0.16310531,9.496492,0.8062985,0.34885493,-0.040017135,0.20245941,-0.27167892,-30.510197,-29.249191
1556490792875,-0.16310531,9.496492,0.8062985,0.02072768,0.10114149,0.027209656,-0.27167892,-30.510197,-29.249191
1556490792893,-0.16310531,9.496492,0.8062985,0.02072768,0.10114149,0.027209656,-2.4531708,-31.12004,-29.117626
1556490792886,-0.83851784,9.829408,2.528361,0.02072768,0.10114149,0.027209656,-2.4531708,-31.12004,-29.117626
1556490792895,-0.83851784,9.829408,2.528361,-0.4000848,0.067050345,-0.20769961,-2.4531708,-31.12004,-29.117626
1556490792913,-0.83851784,9.829408,2.528361,-0.4000848,0.067050345,-0.20769961,0.08766556,-29.971813,-31.394253
1556490792907,-1.4636338,9.223453,4.7102785,-0.4000848,0.067050345,-0.20769961,0.08766556,-29.971813,-31.394253
1556490792915,-1.4636338,9.223453,4.7102785,-0.6834674,0.07344243,-0.40319094,0.08766556,-29.971813,-31.394253
1556490792933,-1.4636338,9.223453,4.7102785,-0.6834674,0.07344243,-0.40319094,0.042648315,-30.870789,-29.073544
1556490792926,-2.4336412,9.043822,5.64915,-0.6834674,0.07344243,-0.40319094,0.042648315,-30.870789,-29.073544
1556490792935,-2.4336412,9.043822,5.64915,-0.7559111,0.15227818,-0.550209,0.042648315,-30.870789,-29.073544
1556490792953,-2.4336412,9.043822,5.64915,-0.7559111,0.15227818,-0.550209,-0.6845455,-28.724304,-30.252834
1556490792946,-3.2527585,8.143271,8.837003,-0.7559111,0.15227818,-0.550209,-0.6845455,-28.724304,-30.252834
1556490792955,-3.2527585,8.143271,8.837003,-0.74312687,0.03349188,-0.68497556,-0.6845455,-28.724304,-30.252834
1556490792973,-3.2527585,8.143271,8.837003,-0.74312687,0.03349188,-0.68497556,1.264885,-29.595047,-31.689445
1556490792966,-5.219119,5.7673526,12.336214,-0.74312687,0.03349188,-0.68497556,1.264885,-29.595047,-31.689445
1556490792976,-5.219119,5.7673526,12.336214,-0.4922374,0.14588611,-0.7174686,1.264885,-29.595047,-31.689445
1556490792993,-5.219119,5.7673526,12.336214,-0.4922374,0.14588611,-0.7174686,-0.25105286,-30.13842,-31.546131
1556490792987,-7.2333813,4.9889517,11.48596,-0.4922374,0.14588611,-0.7174686,-0.25105286,-30.13842,-31.546131
1556490792995,-7.2333813,4.9889517,11.48596,-0.10018933,0.77710485,-0.5134545,-0.25105286,-30.13842,-31.546131
1556490793013,-7.2333813,4.9889517,11.48596,-0.10018933,0.77710485,-0.5134545,2.8860836,-30.35147,-31.618462
1556490793006,-8.756652,5.3338437,10.060888,-0.10018933,0.77710485,-0.5134545,2.8860836,-30.35147,-31.618462
1556490793015,-8.756652,5.3338437,10.060888,0.05375347,1.331086,-0.2812086,2.8860836,-30.35147,-31.618462
1556490793033,-8.756652,5.3338437,10.060888,0.05375347,1.331086,-0.2812086,4.943714,-28.834076,-31.642616
1556490793027,-10.18891,4.7422585,9.761503,0.05375347,1.331086,-0.2812086,4.943714,-28.834076,-31.642616
1556490793036,-10.18891,4.7422585,9.761503,-0.09965666,1.7854569,-0.03298251,4.943714,-28.834076,-31.642616
1556490793053,-10.18891,4.7422585,9.761503,-0.09965666,1.7854569,-0.03298251,7.0829887,-29.151554,-32.188408
1556490793047,-10.940965,3.1950366,10.870424,-0.09965666,1.7854569,-0.03298251,7.0829887,-29.151554,-32.188408
1556490793056,-10.940965,3.1950366,10.870424,-0.20672414,1.9857423,0.41286567,7.0829887,-29.151554,-32.188408
1556490793073,-10.940965,3.1950366,10.870424,-0.20672414,1.9857423,0.41286567,5.390024,-29.99089,-33.555553
1556490793067,-10.629604,1.7867297,11.715888,-0.20672414,1.9857423,0.41286567,5.390024,-29.99089,-33.555553
1556490793076,-10.629604,1.7867297,11.715888,0.05428614,1.932475,1.0696528,5.390024,-29.99089,-33.555553
1556490793093,-10.629604,1.7867297,11.715888,0.05428614,1.932475,1.0696528,5.1338673,-28.283962,-31.05568
1556490793087,-6.3735476,2.2920916,12.113472,0.05428614,1.932475,1.0696528,5.1338673,-28.283962,-31.05568
1556490793096,-6.3735476,2.2920916,12.113472,0.64235836,1.5750506,1.8766538,5.1338673,-28.283962,-31.05568
1556490793113,-6.3735476,2.2920916,12.113472,0.64235836,1.5750506,1.8766538,6.86611,-30.205246,-30.472462
1556490793107,-2.7354214,3.9039805,9.905208,0.64235836,1.5750506,1.8766538,6.86611,-30.205246,-30.472462