time,aX,aY,aZ,wX,wY,wZ,mX,mY,mZ
419290632121418,-0.5632877,0.43483427,9.760892,0.009071494,-0.011645848,0.04905459,20.24826,-2.5637226,-47.10686
419290634621418,-0.5632877,0.43483427,9.760892,0.005088304,-0.01498287,0.05104898,20.24826,-2.5637226,-47.10686
419290632121418,-0.58811015,0.42430916,9.765217,0.005088304,-0.01498287,0.05104898,20.24826,-2.5637226,-47.10686
419290636749647,-0.58811015,0.42430916,9.765217,0.005088304,-0.01498287,0.05104898,20.156488,-4.5375624,-46.713852
419290637121418,-0.58811015,0.42430916,9.765217,0.0031504259,-0.014727935,0.05008017,20.156488,-4.5375624,-46.713852
419290634621418,-0.5569692,0.42398593,9.804303,0.0031504259,-0.014727935,0.05008017,20.156488,-4.5375624,-46.713852
419290637121418,-0.5558984,0.43726957,9.834721,0.0031504259,-0.014727935,0.05008017,20.156488,-4.5375624,-46.713852
419290639621418,-0.5558984,0.43726957,9.834721,0.0015417766,-0.017374113,0.04974586,20.156488,-4.5375624,-46.713852
419290639621418,-0.53893113,0.4575611,9.842558,0.0015417766,-0.017374113,0.04974586,20.156488,-4.5375624,-46.713852
419290642121418,-0.53893113,0.4575611,9.842558,-0.0017911168,-0.01841079,0.048419915,20.156488,-4.5375624,-46.713852
419290642121418,-0.52198106,0.45916858,9.884321,-0.0017911168,-0.01841079,0.048419915,20.156488,-4.5375624,-46.713852
419290644621418,-0.52198106,0.45916858,9.884321,-0.0017911168,-0.019765425,0.046459623,20.156488,-4.5375624,-46.713852
419290646749647,-0.52198106,0.45916858,9.884321,-0.0017911168,-0.019765425,0.046459623,20.518194,-3.829585,-45.218277
419290644621418,-0.50395876,0.45491475,9.882981,-0.0017911168,-0.019765425,0.046459623,20.518194,-3.829585,-45.218277
419290647121418,-0.50395876,0.45491475,9.882981,-4.4864416E-4,-0.019085951,0.045597564,20.518194,-3.829585,-45.218277
419290647121418,-0.5003114,0.4377994,9.883401,-4.4864416E-4,-0.019085951,0.045597564,20.518194,-3.829585,-45.218277
419290649621418,-0.5003114,0.4377994,9.883401,3.8474938E-4,-0.019005928,0.044216026,20.518194,-3.829585,-45.218277
419290649621418,-0.51303667,0.43799996,9.923919,3.8474938E-4,-0.019005928,0.044216026,20.518194,-3.829585,-45.218277
419290652121418,-0.51303667,0.43799996,9.923919,0.001574418,-0.019980937,0.039925795,20.518194,-3.829585,-45.218277
419290652121418,-0.51522046,0.42710978,9.895815,0.001574418,-0.019980937,0.039925795,20.518194,-3.829585,-45.218277
419290654621418,-0.51522046,0.42710978,9.895815,0.0048384247,-0.020286847,0.037834212,20.518194,-3.829585,-45.218277
419290656749647,-0.51522046,0.42710978,9.895815,0.0048384247,-0.020286847,0.037834212,19.396473,-3.0264568,-45.58432
419290654621418,-0.4717233,0.42490333,9.882579,0.0048384247,-0.020286847,0.037834212,19.396473,-3.0264568,-45.58432
419290657121418,-0.4717233,0.42490333,9.882579,0.006198994,-0.020949904,0.034989685,19.396473,-3.0264568,-45.58432
419290657121418,-0.46615684,0.40349704,9.902911,0.006198994,-0.020949904,0.034989685,19.396473,-3.0264568,-45.58432
419290659621418,-0.46615684,0.40349704,9.902911,0.010528404,-0.021114301,0.031011313,19.396473,-3.0264568,-45.58432
419290659621418,-0.4505169,0.42871627,9.909998,0.010528404,-0.021114301,0.031011313,19.396473,-3.0264568,-45.58432
419290662121418,-0.4505169,0.42871627,9.909998,0.011854494,-0.021947253,0.0273618,19.396473,-3.0264568,-45.58432
419290662121418,-0.45668218,0.43888554,9.904036,0.011854494,-0.021947253,0.0273618,19.396473,-3.0264568,-45.58432
419290664621418,-0.45668218,0.43888554,9.904036,0.014064839,-0.021284208,0.02470962,19.396473,-3.0264568,-45.58432
419290666749647,-0.45668218,0.43888554,9.904036,0.014064839,-0.021284208,0.02470962,18.01096,-4.3503084,-46.010178
419290664621418,-0.41846076,0.42662904,9.892212,0.014064839,-0.021284208,0.02470962,18.01096,-4.3503084,-46.010178
419290667121418,-0.41846076,0.42662904,9.892212,0.01823031,-0.019345794,0.022057438,18.01096,-4.3503084,-46.010178
419290667121418,-0.37160188,0.43129435,9.878377,0.01823031,-0.019345794,0.022057438,18.01096,-4.3503084,-46.010178
419290669621418,-0.3337142,0.46643165,9.860055,0.01823031,-0.019345794,0.022057438,18.01096,-4.3503084,-46.010178
419290669621418,-0.3337142,0.46643165,9.860055,0.02067236,-0.017873034,0.016673625,18.01096,-4.3503084,-46.010178
419290672121418,-0.3337142,0.46643165,9.860055,0.023630714,-0.019148603,0.011879345,18.01096,-4.3503084,-46.010178
419290674621418,-0.3337142,0.46643165,9.860055,0.027325222,-0.0216132,0.007425768,18.01096,-4.3503084,-46.010178
419290672121418,-0.36350262,0.4380186,9.826424,0.027325222,-0.0216132,0.007425768,18.01096,-4.3503084,-46.010178
419290676749647,-0.36350262,0.4380186,9.826424,0.027325222,-0.0216132,0.007425768,20.187286,-3.8817158,-47.047443
419290674621418,-0.37132457,0.4343252,9.806652,0.027325222,-0.0216132,0.007425768,20.187286,-3.8817158,-47.047443
419290677121418,-0.37132457,0.4343252,9.806652,0.028571306,-0.024594296,0.0032832439,20.187286,-3.8817158,-47.047443
419290677121418,-0.36704397,0.40655273,9.79776,0.028571306,-0.024594296,0.0032832439,20.187286,-3.8817158,-47.047443
419290679621418,-0.42390803,0.41113645,9.763138,0.028571306,-0.024594296,0.0032832439,20.187286,-3.8817158,-47.047443
419290679621418,-0.42390803,0.41113645,9.763138,0.03022637,-0.02698556,-0.0013347943,20.187286,-3.8817158,-47.047443
419290682121418,-0.42390803,0.41113645,9.763138,0.032691002,-0.030634418,-0.0046496103,20.187286,-3.8817158,-47.047443
419290684621418,-0.42390803,0.41113645,9.763138,0.031756036,-0.03172239,-0.007148479,20.187286,-3.8817158,-47.047443
419290682121418,-0.40500838,0.3856548,9.73944,0.031756036,-0.03172239,-0.007148479,20.187286,-3.8817158,-47.047443
419290686749647,-0.40500838,0.3856548,9.73944,0.031756036,-0.03172239,-0.007148479,18.783014,-5.596242,-46.999653
419290687121418,-0.40500838,0.3856548,9.73944,0.030430099,-0.033569694,-0.00766984,18.783014,-5.596242,-46.999653
419290684621418,-0.40714747,0.4004903,9.735458,0.030430099,-0.033569694,-0.00766984,18.783014,-5.596242,-46.999653
419290687121418,-0.4081432,0.4150528,9.731494,0.030430099,-0.033569694,-0.00766984,18.783014,-5.596242,-46.999653
419290689621418,-0.4081432,0.4150528,9.731494,0.028571596,-0.03223273,-0.0087349955,18.783014,-5.596242,-46.999653
419290689621418,-0.41412723,0.41496414,9.745748,0.028571596,-0.03223273,-0.0087349955,18.783014,-5.596242,-46.999653
419290692121418,-0.41412723,0.41496414,9.745748,0.026452472,-0.031699765,-0.00940993,18.783014,-5.596242,-46.999653
419290692121418,-0.40308347,0.3986823,9.746662,0.026452472,-0.031699765,-0.00940993,18.783014,-5.596242,-46.999653
419290694621418,-0.40308347,0.3986823,9.746662,0.025103087,-0.031178765,-0.007942013,18.783014,-5.596242,-46.999653
419290696749647,-0.40308347,0.3986823,9.746662,0.025103087,-0.031178765,-0.007942013,20.506779,-4.101056,-45.966095
419290694621418,-0.36920157,0.3958469,9.774436,0.025103087,-0.031178765,-0.007942013,20.506779,-4.101056,-45.966095
419290697121418,-0.36920157,0.3958469,9.774436,0.02498445,-0.027507931,-0.008842274,20.506779,-4.101056,-45.966095
419290699621418,-0.36920157,0.3958469,9.774436,0.022758076,-0.02376739,-0.008746737,20.506779,-4.101056,-45.966095
419290697121418,-0.33869454,0.4176208,9.788661,0.022758076,-0.02376739,-0.008746737,20.506779,-4.101056,-45.966095
419290699621418,-0.33534592,0.39566588,9.812142,0.022758076,-0.02376739,-0.008746737,20.506779,-4.101056,-45.966095
419290702121418,-0.33534592,0.39566588,9.812142,0.022711888,-0.01980089,-0.010808356,20.506779,-4.101056,-45.966095
419290702121418,-0.3510639,0.4118434,9.814735,0.022711888,-0.01980089,-0.010808356,20.506779,-4.101056,-45.966095
419290704621418,-0.3510639,0.4118434,9.814735,0.023459245,-0.015822852,-0.013211264,20.506779,-4.101056,-45.966095
419290706749647,-0.3510639,0.4118434,9.814735,0.023459245,-0.015822852,-0.013211264,18.510122,-4.300458,-46.00136
419290704621418,-0.3493718,0.417161,9.843903,0.023459245,-0.015822852,-0.013211264,18.510122,-4.300458,-46.00136
419290707121418,-0.3493718,0.417161,9.843903,0.024689374,-0.012224205,-0.0155797815,18.510122,-4.300458,-46.00136
419290707121418,-0.3193107,0.42424604,9.868625,0.024689374,-0.012224205,-0.0155797815,18.510122,-4.300458,-46.00136
419290709621418,-0.3193107,0.42424604,9.868625,0.024842586,-0.0083992705,-0.01823188,18.510122,-4.300458,-46.00136
419290709621418,-0.31348333,0.45062202,9.872701,0.024842586,-0.0083992705,-0.01823188,18.510122,-4.300458,-46.00136
419290712121418,-0.31348333,0.45062202,9.872701,0.023992218,-0.0023979135,-0.019921342,18.510122,-4.300458,-46.00136
419290712121418,-0.3234909,0.44242966,9.857805,0.023992218,-0.0023979135,-0.019921342,18.510122,-4.300458,-46.00136
419290714621418,-0.3234909,0.44242966,9.857805,0.025556087,6.7933835E-4,-0.020397011,18.510122,-4.300458,-46.00136
419290716749647,-0.3234909,0.44242966,9.857805,0.025556087,6.7933835E-4,-0.020397011,19.526121,-3.7990608,-45.393787
419290714621418,-0.33519766,0.43555114,9.84287,0.025556087,6.7933835E-4,-0.020397011,19.526121,-3.7990608,-45.393787
419290717121418,-0.33519766,0.43555114,9.84287,0.025704233,0.0036996389,-0.022091255,19.526121,-3.7990608,-45.393787
419290717121418,-0.35029048,0.45515075,9.856087,0.025704233,0.0036996389,-0.022091255,19.526121,-3.7990608,-45.393787
419290719621418,-0.35029048,0.45515075,9.856087,0.028366512,0.0055191536,-0.025575966,19.526121,-3.7990608,-45.393787
419290719621418,-0.351455,0.48823115,9.854605,0.028366512,0.0055191536,-0.025575966,19.526121,-3.7990608,-45.393787
419290722121418,-0.351455,0.48823115,9.854605,0.029444212,0.0061200913,-0.026313433,19.526121,-3.7990608,-45.393787
419290722121418,-0.36728698,0.4552254,9.816589,0.029444212,0.0061200913,-0.026313433,19.526121,-3.7990608,-45.393787
419290724621418,-0.36728698,0.4552254,9.816589,0.028571306,0.005893535,-0.026993103,19.526121,-3.7990608,-45.393787
419290726749647,-0.36728698,0.4552254,9.816589,0.028571306,0.005893535,-0.026993103,19.687033,-3.9205427,-45.992676
419290724621418,-0.34766662,0.44868433,9.813993,0.028571306,0.005893535,-0.026993103,19.687033,-3.9205427,-45.992676
419290727121418,-0.34766662,0.44868433,9.813993,0.028214412,0.0048736315,-0.028625242,19.687033,-3.9205427,-45.992676
419290727121418,-0.37198505,0.46558914,9.799244,0.028214412,0.0048736315,-0.028625242,19.687033,-3.9205427,-45.992676
419290729621418,-0.37198505,0.46558914,9.799244,0.027064169,0.003060379,-0.030925723,19.687033,-3.9205427,-45.992676
419290729621418,-0.37794724,0.44630873,9.821162,0.027064169,0.003060379,-0.030925723,19.687033,-3.9205427,-45.992676
419290732121418,-0.37794724,0.44630873,9.821162,0.02633232,0.0014109025,-0.031277254,19.687033,-3.9205427,-45.992676
419290732121418,-0.3945149,0.472059,9.824912,0.02633232,0.0014109025,-0.031277254,19.687033,-3.9205427,-45.992676
419290734621418,-0.3945149,0.472059,9.824912,0.029001696,0.0020738961,-0.031957652,19.687033,-3.9205427,-45.992676
419290736749647,-0.3945149,0.472059,9.824912,0.029001696,0.0020738961,-0.031957652,19.800257,-5.107441,-47.60761
419290737121418,-0.3945149,0.472059,9.824912,0.028945638,0.0023913737,-0.032676693,19.800257,-5.107441,-47.60761
419290734621418,-0.3907332,0.478297,9.7992,0.028945638,0.0023913737,-0.032676693,19.800257,-5.107441,-47.60761
419290737121418,-0.40441874,0.4764001,9.806788,0.028945638,0.0023913737,-0.032676693,19.800257,-5.107441,-47.60761
419290739621418,-0.40441874,0.4764001,9.806788,0.025240548,0.0028671958,-0.03371402,19.800257,-5.107441,-47.60761
419290739621418,-0.39151496,0.48929632,9.787908,0.025240548,0.0028671958,-0.03371402,19.800257,-5.107441,-47.60761
419290742121418,-0.39151496,0.48929632,9.787908,0.026734425,0.0029975018,-0.03391778,19.800257,-5.107441,-47.60761
419290742121418,-0.4173377,0.5002178,9.781998,0.026734425,0.0029975018,-0.03391778,19.800257,-5.107441,-47.60761
419290744621418,-0.4173377,0.5002178,9.781998,0.028571306,0.0030491846,-0.035447523,19.800257,-5.107441,-47.60761
419290746749647,-0.4173377,0.5002178,9.781998,0.028571306,0.0030491846,-0.035447523,20.297087,-5.03397,-45.319675
419290744621418,-0.41414562,0.51180106,9.768688,0.028571306,0.0030491846,-0.035447523,20.297087,-5.03397,-45.319675
419290747121418,-0.41414562,0.51180106,9.768688,0.029573547,0.0023913737,-0.037436478,20.297087,-5.03397,-45.319675
419290747121418,-0.4126599,0.5528222,9.761944,0.029573547,0.0023913737,-0.037436478,20.297087,-5.03397,-45.319675
419290749621418,-0.4126599,0.5528222,9.761944,0.031098126,0.002855773,-0.03896106,20.297087,-5.03397,-45.319675
419290749621418,-0.40675622,0.55611885,9.741234,0.031098126,0.002855773,-0.03896106,20.297087,-5.03397,-45.319675
419290752121418,-0.40675622,0.55611885,9.741234,0.030107284,0.006182136,-0.03909761,20.297087,-5.03397,-45.319675
419290752121418,-0.43979588,0.5746935,9.722427,0.030107284,0.006182136,-0.03909761,20.297087,-5.03397,-45.319675
419290754621418,-0.43979588,0.5746935,9.722427,0.02925192,0.00799932,-0.039289974,20.297087,-5.03397,-45.319675
419290756749647,-0.43979588,0.5746935,9.722427,0.02925192,0.00799932,-0.039289974,20.45691,-5.144429,-44.854977
419290754621418,-0.47814593,0.5702892,9.69529,0.02925192,0.00799932,-0.039289974,20.45691,-5.144429,-44.854977
419290757121418,-0.47814593,0.5702892,9.69529,0.02921669,0.0107041765,-0.039630283,20.45691,-5.144429,-44.854977
419290757121418,-0.50090826,0.5574531,9.649031,0.02921669,0.0107041765,-0.039630283,20.45691,-5.144429,-44.854977
419290759621418,-0.50090826,0.5574531,9.649031,0.028730618,0.01046114,-0.039630283,20.45691,-5.144429,-44.854977
419290759621418,-0.49260348,0.5659374,9.678398,0.028730618,0.01046114,-0.039630283,20.45691,-5.144429,-44.854977
419290762121418,-0.49260348,0.5659374,9.678398,0.026491286,0.012461502,-0.04054359,20.45691,-5.144429,-44.854977
419290762121418,-0.4548493,0.5511667,9.634489,0.026491286,0.012461502,-0.04054359,20.45691,-5.144429,-44.854977
419290764621418,-0.4548493,0.5511667,9.634489,0.026430251,0.012160517,-0.0389166,20.45691,-5.144429,-44.854977
419290766749647,-0.4548493,0.5511667,9.634489,0.026430251,0.012160517,-0.0389166,17.345718,-4.4199257,-46.325817
419290764621418,-0.5085762,0.5663939,9.638114,0.026430251,0.012160517,-0.0389166,17.345718,-4.4199257,-46.325817
419290767121418,-0.5085762,0.5663939,9.638114,0.023818525,0.012512181,-0.03918763,17.345718,-4.4199257,-46.325817
419290767121418,-0.4937246,0.57951105,9.6587105,0.023818525,0.012512181,-0.03918763,17.345718,-4.4199257,-46.325817
419290769621418,-0.4937246,0.57951105,9.6587105,0.023595268,0.012512181,-0.040513657,17.345718,-4.4199257,-46.325817
419290769621418,-0.51434845,0.5735488,9.670635,0.023595268,0.012512181,-0.040513657,17.345718,-4.4199257,-46.325817
419290772121418,-0.51434845,0.5735488,9.670635,0.020877752,0.010263427,-0.040616922,17.345718,-4.4199257,-46.325817
419290774621418,-0.51434845,0.5735488,9.670635,0.017239066,0.008444084,-0.039290905,17.345718,-4.4199257,-46.325817
419290772121418,-0.53204226,0.5843048,9.730036,0.017239066,0.008444084,-0.039290905,17.345718,-4.4199257,-46.325817
419290776749647,-0.53204226,0.5843048,9.730036,0.017239066,0.008444084,-0.039290905,20.156021,-4.532839,-46.25803
419290774621418,-0.54884434,0.57359976,9.708421,0.017239066,0.008444084,-0.039290905,20.156021,-4.532839,-46.25803
419290777121418,-0.54884434,0.57359976,9.708421,0.01638718,0.0071180617,-0.037064806,20.156021,-4.532839,-46.25803
419290777121418,-0.5917922,0.5676375,9.73158,0.01638718,0.0071180617,-0.037064806,20.156021,-4.532839,-46.25803
419290779621418,-0.5917922,0.5676375,9.73158,0.017282838,0.005361676,-0.034180112,20.156021,-4.532839,-46.25803
419290779621418,-0.6703972,0.5527664,9.727914,0.017282838,0.005361676,-0.034180112,20.156021,-4.532839,-46.25803
419290782121418,-0.66634536,0.54847324,9.716161,0.017282838,0.005361676,-0.034180112,20.156021,-4.532839,-46.25803
419290782121418,-0.66634536,0.54847324,9.716161,0.015114326,0.0044660196,-0.030378645,20.156021,-4.532839,-46.25803
419290784621418,-0.66634536,0.54847324,9.716161,0.0122743845,0.0028233249,-0.02589601,20.156021,-4.532839,-46.25803
419290786749647,-0.66634536,0.54847324,9.716161,0.0122743845,0.0028233249,-0.02589601,19.644352,-4.8431377,-45.95108
419290787121418,-0.66634536,0.54847324,9.716161,0.010082304,4.5996718E-4,-0.020763202,19.644352,-4.8431377,-45.95108
419290784621418,-0.6231989,0.53418076,9.729487,0.010082304,4.5996718E-4,-0.020763202,19.644352,-4.8431377,-45.95108
419290787121418,-0.63743675,0.56148773,9.748066,0.010082304,4.5996718E-4,-0.020763202,19.644352,-4.8431377,-45.95108
419290789621418,-0.63743675,0.56148773,9.748066,0.0063482914,-0.0011100192,-0.016228262,19.644352,-4.8431377,-45.95108
419290789621418,-0.6297438,0.5738925,9.7733555,0.0063482914,-0.0011100192,-0.016228262,19.644352,-4.8431377,-45.95108
419290792121418,-0.62543416,0.5586806,9.803831,0.0063482914,-0.0011100192,-0.016228262,19.644352,-4.8431377,-45.95108
419290792121418,-0.62543416,0.5586806,9.803831,0.006115636,-0.0030020531,-0.0123472065,19.644352,-4.8431377,-45.95108
419290794621418,-0.62543416,0.5586806,9.803831,0.0032416414,-0.005213054,-0.008147225,19.644352,-4.8431377,-45.95108
419290796749647,-0.62543416,0.5586806,9.803831,0.0032416414,-0.005213054,-0.008147225,19.514704,-4.0705338,-46.14161
419290794621418,-0.6666587,0.56836337,9.8110695,0.0032416414,-0.005213054,-0.008147225,19.514704,-4.0705338,-46.14161
419290797121418,-0.6666587,0.56836337,9.8110695,0.0024702754,-0.0072626024,-0.004940628,19.514704,-4.0705338,-46.14161
419290797121418,-0.6530321,0.5674475,9.825079,0.0024702754,-0.0072626024,-0.004940628,19.514704,-4.0705338,-46.14161
419290799621418,-0.6530321,0.5674475,9.825079,0.0012501362,-0.011641774,-9.681696E-4,19.514704,-4.0705338,-46.14161
419290799621418,-0.6827793,0.5777166,9.823775,0.0012501362,-0.011641774,-9.681696E-4,19.514704,-4.0705338,-46.14161
419290802121418,-0.6585038,0.55905956,9.81702,0.0012501362,-0.011641774,-9.681696E-4,19.514704,-4.0705338,-46.14161
419290802121418,-0.6585038,0.55905956,9.81702,0.001931617,-0.014678134,0.0029986016,19.514704,-4.0705338,-46.14161
419290804621418,-0.6585038,0.55905956,9.81702,6.077923E-4,-0.01944451,0.006572624,19.514704,-4.0705338,-46.14161
419290806749647,-0.6585038,0.55905956,9.81702,6.077923E-4,-0.01944451,0.006572624,20.518507,-3.832735,-45.522156
419290804621418,-0.6730217,0.55107117,9.790243,6.077923E-4,-0.01944451,0.006572624,20.518507,-3.832735,-45.522156
419290807121418,-0.6730217,0.55107117,9.790243,-7.166746E-4,-0.021308076,0.011208258,20.518507,-3.832735,-45.522156
419290807121418,-0.6541337,0.5423092,9.80454,-7.166746E-4,-0.021308076,0.011208258,20.518507,-3.832735,-45.522156
419290809621418,-0.6541337,0.5423092,9.80454,-0.0016497353,-0.02314413,0.01662608,20.518507,-3.832735,-45.522156
419290809621418,-0.6300839,0.5436831,9.790099,-0.0016497353,-0.02314413,0.01662608,20.518507,-3.832735,-45.522156
419290812121418,-0.6300839,0.5436831,9.790099,-0.0028329508,-0.025793321,0.022065848,20.518507,-3.832735,-45.522156
419290812121418,-0.5879512,0.5458712,9.780043,-0.0028329508,-0.025793321,0.022065848,20.518507,-3.832735,-45.522156
419290814621418,-0.5879512,0.5458712,9.780043,-0.004454487,-0.027911972,0.024113126,20.518507,-3.832735,-45.522156
419290816749647,-0.5879512,0.5458712,9.780043,-0.004454487,-0.027911972,0.024113126,20.174314,-4.1374397,-46.275856
419290814621418,-0.5724008,0.53474563,9.75017,-0.004454487,-0.027911972,0.024113126,20.174314,-4.1374397,-46.275856
419290817121418,-0.5724008,0.53474563,9.75017,-0.0054505,-0.031561095,0.026351964,20.174314,-4.1374397,-46.275856
419290817121418,-0.53989387,0.54796314,9.762419,-0.0054505,-0.031561095,0.026351964,20.174314,-4.1374397,-46.275856
419290819621418,-0.53989387,0.54796314,9.762419,-0.0065851836,-0.03459046,0.027866645,20.174314,-4.1374397,-46.275856
419290819621418,-0.5112284,0.54056585,9.750478,-0.0065851836,-0.03459046,0.027866645,20.174314,-4.1374397,-46.275856
419290822121418,-0.5112284,0.54056585,9.750478,-0.0070965104,-0.034895808,0.029553303,20.174314,-4.1374397,-46.275856
419290822121418,-0.4695422,0.52169305,9.729933,-0.0070965104,-0.034895808,0.029553303,20.174314,-4.1374397,-46.275856
419290824621418,-0.4695422,0.52169305,9.729933,-0.010644626,-0.032967065,0.02790908,20.174314,-4.1374397,-46.275856
419290826749647,-0.4695422,0.52169305,9.729933,-0.010644626,-0.032967065,0.02790908,20.913813,-2.4972553,-47.095104
419290824621418,-0.47068274,0.50845087,9.736511,-0.010644626,-0.032967065,0.02790908,20.913813,-2.4972553,-47.095104
419290827121418,-0.47068274,0.50845087,9.736511,-0.012395807,-0.030973945,0.027244706,20.913813,-2.4972553,-47.095104
419290827121418,-0.43806952,0.50033665,9.727549,-0.012395807,-0.030973945,0.027244706,20.913813,-2.4972553,-47.095104
419290829621418,-0.43806952,0.50033665,9.727549,-0.012603609,-0.029354416,0.02583298,20.913813,-2.4972553,-47.095104
419290829621418,-0.38949972,0.48753592,9.710931,-0.012603609,-0.029354416,0.02583298,20.913813,-2.4972553,-47.095104
419290832121418,-0.38949972,0.48753592,9.710931,-0.014971033,-0.028531112,0.023334805,20.913813,-2.4972553,-47.095104
419290832121418,-0.36435047,0.5016037,9.706143,-0.014971033,-0.028531112,0.023334805,20.913813,-2.4972553,-47.095104
419290834621418,-0.36435047,0.5016037,9.706143,-0.01649791,-0.027971044,0.018443665,20.913813,-2.4972553,-47.095104
419290836749647,-0.36435047,0.5016037,9.706143,-0.01649791,-0.027971044,0.018443665,19.210546,-3.4258738,-44.353905
419290837121418,-0.36435047,0.5016037,9.706143,-0.016111027,-0.027500663,0.013713376,19.210546,-3.4258738,-44.353905
419290834621418,-0.3381192,0.46158692,9.702088,-0.016111027,-0.027500663,0.013713376,19.210546,-3.4258738,-44.353905
419290837121418,-0.3081713,0.49222085,9.718068,-0.016111027,-0.027500663,0.013713376,19.210546,-3.4258738,-44.353905
419290839621418,-0.3081713,0.49222085,9.718068,-0.017072048,-0.027271759,0.0071465555,19.210546,-3.4258738,-44.353905
419290839621418,-0.2738988,0.4787622,9.706134,-0.017072048,-0.027271759,0.0071465555,19.210546,-3.4258738,-44.353905
419290842121418,-0.2738988,0.4787622,9.706134,-0.01574886,-0.02892818,-3.1220738E-4,19.210546,-3.4258738,-44.353905
419290842121418,-0.26225123,0.46911976,9.714102,-0.01574886,-0.02892818,-3.1220738E-4,19.210546,-3.4258738,-44.353905
419290844621418,-0.26225123,0.46911976,9.714102,-0.017144553,-0.028659955,-0.007201139,19.210546,-3.4258738,-44.353905
419290846749647,-0.26225123,0.46911976,9.714102,-0.017144553,-0.028659955,-0.007201139,20.197302,-3.5960703,-44.932156
419290844621418,-0.24903768,0.48458987,9.70908,-0.017144553,-0.028659955,-0.007201139,20.197302,-3.5960703,-44.932156
419290847121418,-0.24903768,0.48458987,9.70908,-0.016929999,-0.026009656,-0.015376046,20.197302,-3.5960703,-44.932156
419290847121418,-0.23714174,0.47864476,9.704392,-0.016929999,-0.026009656,-0.015376046,20.197302,-3.5960703,-44.932156
419290849621418,-0.23714174,0.47864476,9.704392,-0.01829968,-0.025128674,-0.022925392,20.197302,-3.5960703,-44.932156
419290849621418,-0.2698934,0.49242547,9.694914,-0.01829968,-0.025128674,-0.022925392,20.197302,-3.5960703,-44.932156
419290852121418,-0.2698934,0.49242547,9.694914,-0.019802995,-0.025307678,-0.029063787,20.197302,-3.5960703,-44.932156
419290852121418,-0.2885279,0.47927508,9.684741,-0.019802995,-0.025307678,-0.029063787,20.197302,-3.5960703,-44.932156
419290854621418,-0.2885279,0.47927508,9.684741,-0.018383868,-0.024162471,-0.03715294,20.197302,-3.5960703,-44.932156
419290856749647,-0.2885279,0.47927508,9.684741,-0.018383868,-0.024162471,-0.03715294,18.330606,-4.571225,-45.080772
419290854621418,-0.35096765,0.45226526,9.681858,-0.018383868,-0.024162471,-0.03715294,18.330606,-4.571225,-45.080772
419290857121418,-0.35096765,0.45226526,9.681858,-0.01946431,-0.023082033,-0.043529592,18.330606,-4.571225,-45.080772
419290857121418,-0.4039272,0.44082195,9.674496,-0.01946431,-0.023082033,-0.043529592,18.330606,-4.571225,-45.080772
419290859621418,-0.4039272,0.44082195,9.674496,-0.020773325,-0.021773014,-0.04911943,18.330606,-4.571225,-45.080772
419290862121418,-0.4039272,0.44082195,9.674496,-0.020499237,-0.020174518,-0.049815618,18.330606,-4.571225,-45.080772
419290859621418,-0.4443434,0.43862262,9.697482,-0.020499237,-0.020174518,-0.049815618,18.330606,-4.571225,-45.080772
419290862121418,-0.53629106,0.42253697,9.729643,-0.020499237,-0.020174518,-0.049815618,18.330606,-4.571225,-45.080772
419290864621418,-0.53629106,0.42253697,9.729643,-0.023826282,-0.019448265,-0.04895771,18.330606,-4.571225,-45.080772
419290866749647,-0.53629106,0.42253697,9.729643,-0.023826282,-0.019448265,-0.04895771,21.356388,-3.6162758,-45.36146
419290867121418,-0.53629106,0.42253697,9.729643,-0.025228774,-0.019253172,-0.046112258,21.356388,-3.6162758,-45.36146
419290864621418,-0.5809548,0.39168754,9.775044,-0.025228774,-0.019253172,-0.046112258,21.356388,-3.6162758,-45.36146
419290867121418,-0.59973305,0.38158742,9.775244,-0.025228774,-0.019253172,-0.046112258,21.356388,-3.6162758,-45.36146
419290869621418,-0.59973305,0.38158742,9.775244,-0.023927819,-0.020867024,-0.042147674,21.356388,-3.6162758,-45.36146
419290869621418,-0.5856954,0.38688704,9.816174,-0.023927819,-0.020867024,-0.042147674,21.356388,-3.6162758,-45.36146
419290872121418,-0.5856954,0.38688704,9.816174,-0.023553682,-0.022111632,-0.038417615,21.356388,-3.6162758,-45.36146
419290872121418,-0.5992086,0.3874038,9.821879,-0.023553682,-0.022111632,-0.038417615,21.356388,-3.6162758,-45.36146
419290874621418,-0.5992086,0.3874038,9.821879,-0.02176515,-0.023656137,-0.03456864,21.356388,-3.6162758,-45.36146
419290876749647,-0.5992086,0.3874038,9.821879,-0.02176515,-0.023656137,-0.03456864,17.530243,-4.006336,-46.18876
419290874621418,-0.5319476,0.38826922,9.864225,-0.02176515,-0.023656137,-0.03456864,17.530243,-4.006336,-46.18876
419290877121418,-0.5319476,0.38826922,9.864225,-0.018447887,-0.02354557,-0.031619962,17.530243,-4.006336,-46.18876
419290877121418,-0.52449936,0.39789662,9.84715,-0.018447887,-0.02354557,-0.031619962,17.530243,-4.006336,-46.18876
419290879621418,-0.52449936,0.39789662,9.84715,-0.014815103,-0.02550292,-0.029629381,17.530243,-4.006336,-46.18876
419290879621418,-0.48282087,0.41489336,9.812521,-0.014815103,-0.02550292,-0.029629381,17.530243,-4.006336,-46.18876
419290882121418,-0.48282087,0.41489336,9.812521,-0.01127971,-0.029049307,-0.02942285,17.530243,-4.006336,-46.18876
419290882121418,-0.45692724,0.4053854,9.793488,-0.01127971,-0.029049307,-0.02942285,17.530243,-4.006336,-46.18876
419290884621418,-0.45692724,0.4053854,9.793488,-0.009648257,-0.032898083,-0.029997827,17.530243,-4.006336,-46.18876
419290886749647,-0.45692724,0.4053854,9.793488,-0.009648257,-0.032898083,-0.029997827,20.48802,-4.4917316,-45.492447
419290887121418,-0.45692724,0.4053854,9.793488,-0.0074821715,-0.034713652,-0.029684734,20.48802,-4.4917316,-45.492447
419290884621418,-0.49578118,0.40103543,9.780183,-0.0074821715,-0.034713652,-0.029684734,20.48802,-4.4917316,-45.492447
419290887121418,-0.48722956,0.44057274,9.750982,-0.0074821715,-0.034713652,-0.029684734,20.48802,-4.4917316,-45.492447
419290889621418,-0.48722956,0.44057274,9.750982,-0.006052509,-0.035428487,-0.030348321,20.48802,-4.4917316,-45.492447
419290889621418,-0.48622036,0.4083887,9.720455,-0.006052509,-0.035428487,-0.030348321,20.48802,-4.4917316,-45.492447
419290892121418,-0.48622036,0.4083887,9.720455,-0.0051784683,-0.034117423,-0.029700782,20.48802,-4.4917316,-45.492447
419290892121418,-0.50949496,0.4041196,9.686473,-0.0051784683,-0.034117423,-0.029700782,20.48802,-4.4917316,-45.492447
419290894621418,-0.50949496,0.4041196,9.686473,-0.0056951134,-0.033262733,-0.029439364,20.48802,-4.4917316,-45.492447
419290896749647,-0.50949496,0.4041196,9.686473,-0.0056951134,-0.033262733,-0.029439364,20.506311,-4.0963326,-45.510273
419290894621418,-0.5272503,0.4263036,9.670427,-0.0056951134,-0.033262733,-0.029439364,20.506311,-4.0963326,-45.510273
419290897121418,-0.5272503,0.4263036,9.670427,-0.009176824,-0.031771492,-0.027781717,20.506311,-4.0963326,-45.510273
419290897121418,-0.5673103,0.42443642,9.644115,-0.009176824,-0.031771492,-0.027781717,20.506311,-4.0963326,-45.510273
419290899621418,-0.5673103,0.42443642,9.644115,-0.011379249,-0.027496643,-0.025721313,20.506311,-4.0963326,-45.510273
419290902121418,-0.5673103,0.42443642,9.644115,-0.010952831,-0.023708262,-0.022689575,20.506311,-4.0963326,-45.510273
419290899621418,-0.5500472,0.43845558,9.643083,-0.010952831,-0.023708262,-0.022689575,20.506311,-4.0963326,-45.510273
419290902121418,-0.5256555,0.4481189,9.6522,-0.010952831,-0.023708262,-0.022689575,20.506311,-4.0963326,-45.510273
419290904621418,-0.5011836,0.49968818,9.625635,-0.010952831,-0.023708262,-0.022689575,20.506311,-4.0963326,-45.510273
419290904621418,-0.5011836,0.49968818,9.625635,-0.014162329,-0.019741517,-0.018879937,20.506311,-4.0963326,-45.510273
419290906749647,-0.5011836,0.49968818,9.625635,-0.014162329,-0.019741517,-0.018879937,18.841808,-4.2562017,-44.9319
419290907121418,-0.5011836,0.49968818,9.625635,-0.017167982,-0.013114225,-0.018926678,18.841808,-4.2562017,-44.9319
419290907121418,-0.48507085,0.50189096,9.668927,-0.017167982,-0.013114225,-0.018926678,18.841808,-4.2562017,-44.9319
419290909621418,-0.48507085,0.50189096,9.668927,-0.019439876,-0.0070557296,-0.017222717,18.841808,-4.2562017,-44.9319
419290909621418,-0.4754372,0.53296447,9.676703,-0.019439876,-0.0070557296,-0.017222717,18.841808,-4.2562017,-44.9319
419290912121418,-0.4754372,0.53296447,9.676703,-0.02043471,-5.13128E-4,-0.016311396,18.841808,-4.2562017,-44.9319
419290912121418,-0.46560597,0.5655991,9.686535,-0.02043471,-5.13128E-4,-0.016311396,18.841808,-4.2562017,-44.9319
419290914621418,-0.51047945,0.5697143,9.678305,-0.02043471,-5.13128E-4,-0.016311396,18.841808,-4.2562017,-44.9319
419290914621418,-0.51047945,0.5697143,9.678305,-0.022554293,0.0067527685,-0.016214848,18.841808,-4.2562017,-44.9319
419290916749647,-0.51047945,0.5697143,9.678305,-0.022554293,0.0067527685,-0.016214848,19.39694,-3.0311804,-46.040146
419290917121418,-0.51047945,0.5697143,9.678305,-0.022596685,0.01313869,-0.017116986,19.39694,-3.0311804,-46.040146
419290917121418,-0.5319482,0.58679456,9.713124,-0.022596685,0.01313869,-0.017116986,19.39694,-3.0311804,-46.040146
419290919621418,-0.5319482,0.58679456,9.713124,-0.024705185,0.019464191,-0.016725302,19.39694,-3.0311804,-46.040146
419290919621418,-0.5564135,0.5921108,9.748465,-0.024705185,0.019464191,-0.016725302,19.39694,-3.0311804,-46.040146
419290922121418,-0.5564135,0.5921108,9.748465,-0.024827976,0.024241362,-0.016725302,19.39694,-3.0311804,-46.040146
419290922121418,-0.59977496,0.59217906,9.766905,-0.024827976,0.024241362,-0.016725302,19.39694,-3.0311804,-46.040146
419290924621418,-0.59977496,0.59217906,9.766905,-0.024165293,0.03325851,-0.016725302,19.39694,-3.0311804,-46.040146
419290924621418,-0.6333113,0.5735614,9.778106,-0.024165293,0.03325851,-0.016725302,19.39694,-3.0311804,-46.040146
419290926749647,-0.6333113,0.5735614,9.778106,-0.024165293,0.03325851,-0.016725302,20.50709,-4.104206,-46.269978
419290927121418,-0.6333113,0.5735614,9.778106,-0.023117743,0.039876066,-0.015807867,20.50709,-4.104206,-46.269978
419290927121418,-0.62944245,0.5844039,9.808421,-0.023117743,0.039876066,-0.015807867,20.50709,-4.104206,-46.269978
419290929621418,-0.62944245,0.5844039,9.808421,-0.021500057,0.047605585,-0.0140777,20.50709,-4.104206,-46.269978
419290929621418,-0.6464074,0.6078459,9.830204,-0.021500057,0.047605585,-0.0140777,20.50709,-4.104206,-46.269978
419290932121418,-0.6464074,0.6078459,9.830204,-0.018779147,0.05329768,-0.013529256,20.50709,-4.104206,-46.269978
419290932121418,-0.6764271,0.5987635,9.87721,-0.018779147,0.05329768,-0.013529256,20.50709,-4.104206,-46.269978
419290934621418,-0.6764271,0.5987635,9.87721,-0.016214095,0.057707913,-0.01093385,20.50709,-4.104206,-46.269978
419290934621418,-0.67868936,0.5924404,9.924196,-0.016214095,0.057707913,-0.01093385,20.50709,-4.104206,-46.269978
419290936749647,-0.67868936,0.5924404,9.924196,-0.016214095,0.057707913,-0.01093385,20.950443,-5.231102,-45.29604
419290937121418,-0.67868936,0.5924404,9.924196,-0.011977005,0.060920436,-0.008384495,20.950443,-5.231102,-45.29604
419290937121418,-0.70296144,0.59833616,9.91569,-0.011977005,0.060920436,-0.008384495,20.950443,-5.231102,-45.29604
419290939621418,-0.70296144,0.59833616,9.91569,-0.008334147,0.06307848,-0.0058998195,20.950443,-5.231102,-45.29604
419290939621418,-0.71827817,0.5671482,9.924888,-0.008334147,0.06307848,-0.0058998195,20.950443,-5.231102,-45.29604
419290942121418,-0.71827817,0.5671482,9.924888,-0.003028035,0.063648894,-0.0025834998,20.950443,-5.231102,-45.29604
419290942121418,-0.6861174,0.58760494,9.9476185,-0.003028035,0.063648894,-0.0025834998,20.950443,-5.231102,-45.29604
419290944621418,-0.6861174,0.58760494,9.9476185,0.0038044127,0.061105464,-0.00231911,20.950443,-5.231102,-45.29604
419290944621418,-0.70715785,0.6075702,9.930979,0.0038044127,0.061105464,-0.00231911,20.950443,-5.231102,-45.29604
419290946749647,-0.70715785,0.6075702,9.930979,0.0038044127,0.061105464,-0.00231911,20.679419,-3.954216,-46.121037
419290947121418,-0.70715785,0.6075702,9.930979,0.00939642,0.055764068,-0.0018104259,20.679419,-3.954216,-46.121037
419290947121418,-0.67847776,0.6054221,9.931431,0.00939642,0.055764068,-0.0018104259,20.679419,-3.954216,-46.121037
419290949621418,-0.67847776,0.6054221,9.931431,0.015792461,0.049794026,-0.0020477625,20.679419,-3.954216,-46.121037
419290952121418,-0.67847776,0.6054221,9.931431,0.022498291,0.043088198,-0.0023430996,20.679419,-3.954216,-46.121037
419290949621418,-0.6752213,0.6121727,9.894012,0.022498291,0.043088198,-0.0023430996,20.679419,-3.954216,-46.121037
419290952121418,-0.68251234,0.5826135,9.838588,0.022498291,0.043088198,-0.0023430996,20.679419,-3.954216,-46.121037
419290954621418,-0.68251234,0.5826135,9.838588,0.026304146,0.03529387,-0.0023430996,20.679419,-3.954216,-46.121037
419290954621418,-0.6926709,0.55724174,9.805533,0.026304146,0.03529387,-0.0023430996,20.679419,-3.954216,-46.121037
419290956749647,-0.6926709,0.55724174,9.805533,0.026304146,0.03529387,-0.0023430996,21.904331,-2.5120316,-45.40018
419290957121418,-0.6926709,0.55724174,9.805533,0.029296784,0.023464706,-0.0024395024,21.904331,-2.5120316,-45.40018
419290957121418,-0.6893113,0.5267469,9.742773,0.029296784,0.023464706,-0.0024395024,21.904331,-2.5120316,-45.40018
419290959621418,-0.6893113,0.5267469,9.742773,0.030623047,0.01177265,-0.0031026343,21.904331,-2.5120316,-45.40018
419290959621418,-0.7063336,0.56747055,9.698492,0.030623047,0.01177265,-0.0031026343,21.904331,-2.5120316,-45.40018
419290962121418,-0.7063336,0.56747055,9.698492,0.030520132,0.002183647,-0.0030511774,21.904331,-2.5120316,-45.40018
419290962121418,-0.7241454,0.5417189,9.630555,0.030520132,0.002183647,-0.0030511774,21.904331,-2.5120316,-45.40018
419290964621418,-0.7241454,0.5417189,9.630555,0.028706552,-0.0056355037,-0.0014129996,21.904331,-2.5120316,-45.40018
419290964621418,-0.71850634,0.52258235,9.60796,0.028706552,-0.0056355037,-0.0014129996,21.904331,-2.5120316,-45.40018
419290966749647,-0.71850634,0.52258235,9.60796,0.028706552,-0.0056355037,-0.0014129996,19.22352,-3.170148,-45.125496
419290967121418,-0.71850634,0.52258235,9.60796,0.024693955,-0.016293991,0.0010232707,19.22352,-3.170148,-45.125496
419290969621418,-0.71850634,0.52258235,9.60796,0.019391147,-0.024265029,0.002564312,19.22352,-3.170148,-45.125496
419290967121418,-0.7034769,0.52885437,9.554152,0.019391147,-0.024265029,0.002564312,19.22352,-3.170148,-45.125496
419290969621418,-0.6915556,0.5261512,9.5460415,0.019391147,-0.024265029,0.002564312,19.22352,-3.170148,-45.125496
419290972121418,-0.6915556,0.5261512,9.5460415,0.012361027,-0.03192982,0.0042073065,19.22352,-3.170148,-45.125496
419290972121418,-0.6754367,0.50832105,9.551328,0.012361027,-0.03192982,0.0042073065,19.22352,-3.170148,-45.125496
419290974621418,-0.6754367,0.50832105,9.551328,0.0051716445,-0.03721678,0.004581663,19.22352,-3.170148,-45.125496
419290974621418,-0.6545764,0.5251367,9.548341,0.0051716445,-0.03721678,0.004581663,19.22352,-3.170148,-45.125496
419290976749647,-0.6545764,0.5251367,9.548341,0.0051716445,-0.03721678,0.004581663,20.721323,-3.0237465,-45.402927
419290977121418,-0.6545764,0.5251367,9.548341,-0.0012154747,-0.04051466,0.005866092,20.721323,-3.0237465,-45.402927
419290977121418,-0.60319084,0.4922546,9.548689,-0.0012154747,-0.04051466,0.005866092,20.721323,-3.0237465,-45.402927
419290979621418,-0.60319084,0.4922546,9.548689,-0.01008787,-0.04275947,0.008463702,20.721323,-3.0237465,-45.402927
419290979621418,-0.6557326,0.5350971,9.569074,-0.01008787,-0.04275947,0.008463702,20.721323,-3.0237465,-45.402927
419290982121418,-0.6557326,0.5350971,9.569074,-0.01837432,-0.041752554,0.0107742855,20.721323,-3.0237465,-45.402927
419290982121418,-0.637966,0.541704,9.611493,-0.01837432,-0.041752554,0.0107742855,20.721323,-3.0237465,-45.402927
419290984621418,-0.637966,0.541704,9.611493,-0.026064124,-0.03843852,0.010973752,20.721323,-3.0237465,-45.402927
419290984621418,-0.6118495,0.56291074,9.650599,-0.026064124,-0.03843852,0.010973752,20.721323,-3.0237465,-45.402927
419290986749647,-0.6118495,0.56291074,9.650599,-0.026064124,-0.03843852,0.010973752,20.357748,-3.7128267,-45.075214
419290987121418,-0.6118495,0.56291074,9.650599,-0.030037673,-0.035946324,0.011810595,20.357748,-3.7128267,-45.075214
419290987121418,-0.5833229,0.53865325,9.670972,-0.030037673,-0.035946324,0.011810595,20.357748,-3.7128267,-45.075214
419290989621418,-0.5833229,0.53865325,9.670972,-0.034666337,-0.029789258,0.014933998,20.357748,-3.7128267,-45.075214
419290989621418,-0.6080324,0.5355136,9.738979,-0.034666337,-0.029789258,0.014933998,20.357748,-3.7128267,-45.075214
419290992121418,-0.6080324,0.5355136,9.738979,-0.037277333,-0.021232352,0.017906953,20.357748,-3.7128267,-45.075214
419290992121418,-0.6168792,0.5337279,9.764627,-0.037277333,-0.021232352,0.017906953,20.357748,-3.7128267,-45.075214
419290994621418,-0.6168792,0.5337279,9.764627,-0.040803663,-0.012882562,0.018963862,20.357748,-3.7128267,-45.075214
419290994621418,-0.6176528,0.5142935,9.770371,-0.040803663,-0.012882562,0.018963862,20.357748,-3.7128267,-45.075214
419290996749647,-0.6176528,0.5142935,9.770371,-0.040803663,-0.012882562,0.018963862,19.644663,-4.8462877,-46.254963
419290997121418,-0.6176528,0.5142935,9.770371,-0.04285632,-0.0021958258,0.020275723,19.644663,-4.8462877,-46.254963
419290999621418,-0.6176528,0.5142935,9.770371,-0.044058546,0.00775044,0.023231719,19.644663,-4.8462877,-46.254963
419290997121418,-0.5992844,0.51549125,9.822547,-0.044058546,0.00775044,0.023231719,19.644663,-4.8462877,-46.254963
419291002121418,-0.5992844,0.51549125,9.822547,-0.04485009,0.017386984,0.024290603,19.644663,-4.8462877,-46.254963
419290999621418,-0.6085901,0.5301722,9.867991,-0.04485009,0.017386984,0.024290603,19.644663,-4.8462877,-46.254963
419291002121418,-0.60983187,0.5271826,9.888618,-0.04485009,0.017386984,0.024290603,19.644663,-4.8462877,-46.254963
419291004621418,-0.60983187,0.5271826,9.888618,-0.042642556,0.026670981,0.026053086,19.644663,-4.8462877,-46.254963
419291004621418,-0.62561256,0.5231323,9.922486,-0.042642556,0.026670981,0.026053086,19.644663,-4.8462877,-46.254963
419291006749647,-0.62561256,0.5231323,9.922486,-0.042642556,0.026670981,0.026053086,17.893505,-3.314106,-46.21259
419291007121418,-0.62561256,0.5231323,9.922486,-0.03987459,0.036982194,0.027980883,17.893505,-3.314106,-46.21259
419291007121418,-0.6254564,0.51035327,9.950734,-0.03987459,0.036982194,0.027980883,17.893505,-3.314106,-46.21259
419291009621418,-0.6254564,0.51035327,9.950734,-0.0350634,0.045096688,0.02799347,17.893505,-3.314106,-46.21259
419291009621418,-0.6367243,0.5304616,9.952502,-0.0350634,0.045096688,0.02799347,17.893505,-3.314106,-46.21259
419291012121418,-0.6367243,0.5304616,9.952502,-0.030057507,0.05112948,0.029384103,17.893505,-3.314106,-46.21259
419291012121418,-0.65164596,0.5257001,9.941165,-0.030057507,0.05112948,0.029384103,17.893505,-3.314106,-46.21259
419291014621418,-0.65164596,0.5257001,9.941165,-0.026705163,0.05428515,0.03176691,17.893505,-3.314106,-46.21259
419291014621418,-0.6542257,0.5174663,9.89951,-0.026705163,0.05428515,0.03176691,17.893505,-3.314106,-46.21259
419291016749647,-0.6542257,0.5174663,9.89951,-0.026705163,0.05428515,0.03176691,20.390104,-3.0727272,-46.92821
419291017121418,-0.6542257,0.5174663,9.89951,-0.024108032,0.054932218,0.032757994,20.390104,-3.0727272,-46.92821
419291017121418,-0.6280068,0.5007139,9.871876,-0.024108032,0.054932218,0.032757994,20.390104,-3.0727272,-46.92821
419291019621418,-0.6280068,0.5007139,9.871876,-0.023414323,0.049658056,0.031748038,20.390104,-3.0727272,-46.92821
419291019621418,-0.61626524,0.51264226,9.837357,-0.023414323,0.049658056,0.031748038,20.390104,-3.0727272,-46.92821
419291022121418,-0.61626524,0.51264226,9.837357,-0.024163429,0.043518268,0.031748038,20.390104,-3.0727272,-46.92821
419291022121418,-0.5942197,0.4848434,9.830426,-0.024163429,0.043518268,0.031748038,20.390104,-3.0727272,-46.92821
419291024621418,-0.5942197,0.4848434,9.830426,-0.024582313,0.03929594,0.030491384,20.390104,-3.0727272,-46.92821
419291024621418,-0.6028703,0.50070715,9.822174,-0.024582313,0.03929594,0.030491384,20.390104,-3.0727272,-46.92821
419291026749647,-0.6028703,0.50070715,9.822174,-0.024582313,0.03929594,0.030491384,19.876099,-3.3594065,-44.34215
419291027121418,-0.6177746,0.4891505,9.83967,-0.024582313,0.03929594,0.030491384,19.876099,-3.3594065,-44.34215
419291027121418,-0.6177746,0.4891505,9.83967,-0.026892925,0.033686884,0.02743705,19.876099,-3.3594065,-44.34215
419291029621418,-0.6177746,0.4891505,9.83967,-0.02954471,0.029264145,0.025007801,19.876099,-3.3594065,-44.34215
419291029621418,-0.5540099,0.50632995,9.866886,-0.02954471,0.029264145,0.025007801,19.876099,-3.3594065,-44.34215
419291032121418,-0.5540099,0.50632995,9.866886,-0.032750644,0.028215325,0.021861354,19.876099,-3.3594065,-44.34215
419291032121418,-0.55043745,0.47641018,9.875624,-0.032750644,0.028215325,0.021861354,19.876099,-3.3594065,-44.34215
419291034621418,-0.55043745,0.47641018,9.875624,-0.036320757,0.025923204,0.019872643,19.876099,-3.3594065,-44.34215
419291034621418,-0.55566686,0.44378442,9.9347,-0.036320757,0.025923204,0.019872643,19.876099,-3.3594065,-44.34215
419291036749647,-0.55566686,0.44378442,9.9347,-0.036320757,0.025923204,0.019872643,20.186508,-3.8738422,-46.28774
419291037121418,-0.55566686,0.44378442,9.9347,-0.03906861,0.022051841,0.015738733,20.186508,-3.8738422,-46.28774
419291037121418,-0.5018472,0.4038248,9.939663,-0.03906861,0.022051841,0.015738733,20.186508,-3.8738422,-46.28774
419291039621418,-0.5018472,0.4038248,9.939663,-0.03747277,0.0156932,0.011626447,20.186508,-3.8738422,-46.28774
419291039621418,-0.4936264,0.40244368,9.981792,-0.03747277,0.0156932,0.011626447,20.186508,-3.8738422,-46.28774
419291042121418,-0.4936264,0.40244368,9.981792,-0.03508652,0.009859719,0.005660102,20.186508,-3.8738422,-46.28774
419291042121418,-0.49882096,0.41273108,10.047501,-0.03508652,0.009859719,0.005660102,20.186508,-3.8738422,-46.28774
419291044621418,-0.49882096,0.41273108,10.047501,-0.03309787,0.0028354274,-0.0026899576,20.186508,-3.8738422,-46.28774
419291046749647,-0.49882096,0.41273108,10.047501,-0.03309787,0.0028354274,-0.0026899576,20.919956,-5.8900986,-45.26633
419291044621418,-0.51697296,0.3872323,10.081674,-0.03309787,0.0028354274,-0.0026899576,20.919956,-5.8900986,-45.26633
419291047121418,-0.51697296,0.3872323,10.081674,-0.03005778,-0.0018280912,-0.00920497,20.919956,-5.8900986,-45.26633
419291047121418,-0.5091068,0.3769525,10.133276,-0.03005778,-0.0018280912,-0.00920497,20.919956,-5.8900986,-45.26633
419291049621418,-0.5091068,0.3769525,10.133276,-0.024938233,-0.008715535,-0.015294556,20.919956,-5.8900986,-45.26633
419291052121418,-0.5091068,0.3769525,10.133276,-0.018660069,-0.013258427,-0.02141683,20.919956,-5.8900986,-45.26633
419291049621418,-0.55392194,0.40396714,10.139133,-0.018660069,-0.013258427,-0.02141683,20.919956,-5.8900986,-45.26633
419291052121418,-0.5907002,0.39701897,10.161908,-0.018660069,-0.013258427,-0.02141683,20.919956,-5.8900986,-45.26633
419291054621418,-0.5907002,0.39701897,10.161908,-0.010948867,-0.018108472,-0.026720528,20.919956,-5.8900986,-45.26633
419291056749647,-0.5907002,0.39701897,10.161908,-0.010948867,-0.018108472,-0.026720528,19.698761,-3.6522198,-45.548733
419291057121418,-0.5907002,0.39701897,10.161908,-0.0030603684,-0.024075497,-0.02893973,19.698761,-3.6522198,-45.548733
419291054621418,-0.6502227,0.384931,10.183038,-0.0030603684,-0.024075497,-0.02893973,19.698761,-3.6522198,-45.548733
419291057121418,-0.705635,0.3829762,10.19167,-0.0030603684,-0.024075497,-0.02893973,19.698761,-3.6522198,-45.548733
419291059621418,-0.705635,0.3829762,10.19167,0.003614855,-0.026149392,-0.030574823,19.698761,-3.6522198,-45.548733
419291059621418,-0.76232857,0.42282858,10.192915,0.003614855,-0.026149392,-0.030574823,19.698761,-3.6522198,-45.548733
419291062121418,-0.76232857,0.42282858,10.192915,0.0133182835,-0.023854576,-0.029363906,19.698761,-3.6522198,-45.548733
419291062121418,-0.82202214,0.40237337,10.174091,0.0133182835,-0.023854576,-0.029363906,19.698761,-3.6522198,-45.548733
419291064621418,-0.82202214,0.40237337,10.174091,0.02260116,-0.02322935,-0.026048595,19.698761,-3.6522198,-45.548733
419291066749647,-0.82202214,0.40237337,10.174091,0.02260116,-0.02322935,-0.026048595,18.712162,-3.4835978,-45.12243
419291064621418,-0.8733474,0.41911694,10.151699,0.02260116,-0.02322935,-0.026048595,18.712162,-3.4835978,-45.12243
419291067121418,-0.8733474,0.41911694,10.151699,0.031381242,-0.022703707,-0.022733215,18.712162,-3.4835978,-45.12243
419291067121418,-0.8810562,0.42871925,10.113088,0.031381242,-0.022703707,-0.022733215,18.712162,-3.4835978,-45.12243
419291069621418,-0.8810562,0.42871925,10.113088,0.039368093,-0.019779492,-0.017819714,18.712162,-3.4835978,-45.12243
419291069621418,-0.86965394,0.4116619,10.055786,0.039368093,-0.019779492,-0.017819714,18.712162,-3.4835978,-45.12243
419291072121418,-0.86965394,0.4116619,10.055786,0.046631828,-0.01799101,-0.012886218,18.712162,-3.4835978,-45.12243
419291072121418,-0.8749718,0.45283923,9.988338,0.046631828,-0.01799101,-0.012886218,18.712162,-3.4835978,-45.12243
419291074621418,-0.8749718,0.45283923,9.988338,0.05079186,-0.01425392,-0.0052906214,18.712162,-3.4835978,-45.12243
419291076749647,-0.8749718,0.45283923,9.988338,0.05079186,-0.01425392,-0.0052906214,20.64971,-4.621086,-46.851032
419291074621418,-0.89727867,0.49447155,9.946489,0.05079186,-0.01425392,-0.0052906214,20.64971,-4.621086,-46.851032
419291077121418,-0.89727867,0.49447155,9.946489,0.055412114,-0.01158024,0.0015113275,20.64971,-4.621086,-46.851032
419291077121418,-0.86028224,0.49573904,9.903399,0.055412114,-0.01158024,0.0015113275,20.64971,-4.621086,-46.851032
419291079621418,-0.86028224,0.49573904,9.903399,0.057425395,-0.005946541,0.0075195963,20.64971,-4.621086,-46.851032
419291079621418,-0.8353354,0.54568446,9.837682,0.057425395,-0.005946541,0.0075195963,20.64971,-4.621086,-46.851032
419291082121418,-0.8353354,0.54568446,9.837682,0.05808845,-6.42132E-4,0.012826846,20.64971,-4.621086,-46.851032
419291082121418,-0.87216276,0.5620075,9.780931,0.05808845,-6.42132E-4,0.012826846,20.64971,-4.621086,-46.851032
419291084621418,-0.87216276,0.5620075,9.780931,0.05734981,0.0067645116,0.017505791,20.64971,-4.621086,-46.851032
419291086749647,-0.87216276,0.5620075,9.780931,0.05734981,0.0067645116,0.017505791,18.521229,-4.025838,-44.94966
419291087121418,-0.87216276,0.5620075,9.780931,0.05536077,0.013642903,0.023771383,18.521229,-4.025838,-44.94966
419291084621418,-0.87968373,0.55902636,9.740618,0.05536077,0.013642903,0.023771383,18.521229,-4.025838,-44.94966
419291087121418,-0.85150576,0.57211125,9.705881,0.05536077,0.013642903,0.023771383,18.521229,-4.025838,-44.94966
419291089621418,-0.85150576,0.57211125,9.705881,0.051914588,0.019688081,0.028113695,18.521229,-4.025838,-44.94966
419291089621418,-0.8269404,0.5766173,9.649736,0.051914588,0.019688081,0.028113695,18.521229,-4.025838,-44.94966
419291092121418,-0.8269404,0.5766173,9.649736,0.04744558,0.026109008,0.033000037,18.521229,-4.025838,-44.94966
419291092121418,-0.83054787,0.5708137,9.631384,0.04744558,0.026109008,0.033000037,18.521229,-4.025838,-44.94966
419291094621418,-0.83054787,0.5708137,9.631384,0.04309906,0.03071979,0.036977742,18.521229,-4.025838,-44.94966
419291096749647,-0.83054787,0.5708137,9.631384,0.04309906,0.03071979,0.036977742,20.18542,-3.8628187,-45.22415
419291094621418,-0.8344193,0.5861286,9.607846,0.04309906,0.03071979,0.036977742,20.18542,-3.8628187,-45.22415
419291097121418,-0.8344193,0.5861286,9.607846,0.036663495,0.03356524,0.040955324,20.18542,-3.8628187,-45.22415
419291097121418,-0.79743856,0.5807256,9.583629,0.036663495,0.03356524,0.040955324,20.18542,-3.8628187,-45.22415
419291099621418,-0.79743856,0.5807256,9.583629,0.030633548,0.036150217,0.046597775,20.18542,-3.8628187,-45.22415
419291102121418,-0.79743856,0.5807256,9.583629,0.024667118,0.03833608,0.051041283,20.18542,-3.8628187,-45.22415
419291099621418,-0.81431973,0.59080446,9.5762005,0.024667118,0.03833608,0.051041283,20.18542,-3.8628187,-45.22415
419291104621418,-0.81431973,0.59080446,9.5762005,0.019027961,0.04000588,0.053709645,20.18542,-3.8628187,-45.22415
419291102121418,-0.77458316,0.616268,9.56784,0.019027961,0.04000588,0.053709645,20.18542,-3.8628187,-45.22415
419291106749647,-0.77458316,0.616268,9.56784,0.019027961,0.04000588,0.053709645,20.708817,-3.284196,-45.087162
419291104621418,-0.78020066,0.6139757,9.580796,0.019027961,0.04000588,0.053709645,20.708817,-3.284196,-45.087162
419291107121418,-0.78020066,0.6139757,9.580796,0.012351463,0.041584052,0.056408387,20.708817,-3.284196,-45.087162
419291107121418,-0.76629406,0.6488274,9.597105,0.012351463,0.041584052,0.056408387,20.708817,-3.284196,-45.087162
419291109621418,-0.76629406,0.6488274,9.597105,0.006400345,0.04186447,0.05966797,20.708817,-3.284196,-45.087162
419291109621418,-0.7525796,0.6399607,9.620193,0.006400345,0.04186447,0.05966797,20.708817,-3.284196,-45.087162
419291112121418,-0.7525796,0.6399607,9.620193,0.0022369293,0.04271298,0.062319897,20.708817,-3.284196,-45.087162
419291112121418,-0.75335234,0.6473764,9.622235,0.0022369293,0.04271298,0.062319897,20.708817,-3.284196,-45.087162
419291114621418,-0.75335234,0.6473764,9.622235,-0.0014565177,0.044986557,0.06465604,20.708817,-3.284196,-45.087162
419291116749647,-0.75335234,0.6473764,9.622235,-0.0014565177,0.044986557,0.06465604,18.824139,-4.6579,-45.521835
419291114621418,-0.75439435,0.6320236,9.640047,-0.0014565177,0.044986557,0.06465604,18.824139,-4.6579,-45.521835
419291117121418,-0.75439435,0.6320236,9.640047,-0.0054471386,0.04651684,0.06798366,18.824139,-4.6579,-45.521835
419291117121418,-0.7597953,0.6349231,9.662447,-0.0054471386,0.04651684,0.06798366,18.824139,-4.6579,-45.521835
419291119621418,-0.7597953,0.6349231,9.662447,-0.008314858,0.047756437,0.06974343,18.824139,-4.6579,-45.521835
419291119621418,-0.73029834,0.64515847,9.651548,-0.008314858,0.047756437,0.06974343,18.824139,-4.6579,-45.521835
419291122121418,-0.73029834,0.64515847,9.651548,-0.010129714,0.0490825,0.07204708,18.824139,-4.6579,-45.521835
419291122121418,-0.70237637,0.6846146,9.667716,-0.010129714,0.0490825,0.07204708,18.824139,-4.6579,-45.521835
419291124621418,-0.70237637,0.6846146,9.667716,-0.010237347,0.050713208,0.072763935,18.824139,-4.6579,-45.521835
419291126749647,-0.70237637,0.6846146,9.667716,-0.010237347,0.050713208,0.072763935,19.816992,-4.6962967,-46.10602
419291124621418,-0.6815073,0.6549215,9.665471,-0.010237347,0.050713208,0.072763935,19.816992,-4.6962967,-46.10602
419291127121418,-0.6815073,0.6549215,9.665471,-0.011521214,0.05270238,0.07406893,19.816992,-4.6962967,-46.10602
419291127121418,-0.648019,0.68272626,9.631499,-0.011521214,0.05270238,0.07406893,19.816992,-4.6962967,-46.10602
419291129621418,-0.60867006,0.6444056,9.620205,-0.011521214,0.05270238,0.07406893,19.816992,-4.6962967,-46.10602
419291129621418,-0.60867006,0.6444056,9.620205,-0.0140753165,0.05229925,0.07269854,19.816992,-4.6962967,-46.10602
419291132121418,-0.60867006,0.6444056,9.620205,-0.015227566,0.048494823,0.07137246,19.816992,-4.6962967,-46.10602
419291132121418,-0.56860375,0.6567569,9.593417,-0.015227566,0.048494823,0.07137246,19.816992,-4.6962967,-46.10602
419291134621418,-0.56860375,0.6567569,9.593417,-0.01699942,0.042603657,0.06887265,19.816992,-4.6962967,-46.10602
419291136749647,-0.56860375,0.6567569,9.593417,-0.01699942,0.042603657,0.06887265,19.364584,-3.6712809,-44.187145
419291134621418,-0.52674484,0.65650296,9.560756,-0.01699942,0.042603657,0.06887265,19.364584,-3.6712809,-44.187145
419291137121418,-0.52674484,0.65650296,9.560756,-0.020205162,0.035125807,0.06404691,19.364584,-3.6712809,-44.187145
419291137121418,-0.5030303,0.6519281,9.5593195,-0.020205162,0.035125807,0.06404691,19.364584,-3.6712809,-44.187145
419291139621418,-0.50560176,0.66320974,9.57446,-0.020205162,0.035125807,0.06404691,19.364584,-3.6712809,-44.187145
419291139621418,-0.50560176,0.66320974,9.57446,-0.023802362,0.028746214,0.057101883,19.364584,-3.6712809,-44.187145
419291142121418,-0.50560176,0.66320974,9.57446,-0.028499281,0.019975336,0.050471812,19.364584,-3.6712809,-44.187145
419291144621418,-0.50560176,0.66320974,9.57446,-0.031997565,0.0109755285,0.043841872,19.364584,-3.6712809,-44.187145
419291142121418,-0.4742431,0.6770278,9.584824,-0.031997565,0.0109755285,0.043841872,19.364584,-3.6712809,-44.187145
419291146749647,-0.4742431,0.6770278,9.584824,-0.031997565,0.0109755285,0.043841872,20.22919,-2.9512463,-46.32933
419291144621418,-0.45592532,0.6524514,9.5643215,-0.031997565,0.0109755285,0.043841872,20.22919,-2.9512463,-46.32933
419291147121418,-0.45592532,0.6524514,9.5643215,-0.037050866,0.0011195084,0.03844928,20.22919,-2.9512463,-46.32933
419291147121418,-0.478493,0.64049315,9.557921,-0.037050866,0.0011195084,0.03844928,20.22919,-2.9512463,-46.32933
419291149621418,-0.478493,0.64049315,9.557921,-0.042917475,-0.008895194,0.031697832,20.22919,-2.9512463,-46.32933
419291149621418,-0.4954802,0.66246283,9.601371,-0.042917475,-0.008895194,0.031697832,20.22919,-2.9512463,-46.32933
419291152121418,-0.4954802,0.66246283,9.601371,-0.0499295,-0.016226625,0.028242627,20.22919,-2.9512463,-46.32933
419291154621418,-0.4954802,0.66246283,9.601371,-0.055625558,-0.025359225,0.024806093,20.22919,-2.9512463,-46.32933
419291152121418,-0.52859735,0.62513024,9.635035,-0.055625558,-0.025359225,0.024806093,20.22919,-2.9512463,-46.32933
419291156749647,-0.52859735,0.62513024,9.635035,-0.055625558,-0.025359225,0.024806093,18.69418,-3.882145,-45.40848
419291154621418,-0.53965044,0.61446255,9.662491,-0.055625558,-0.025359225,0.024806093,18.69418,-3.882145,-45.40848
419291157121418,-0.53965044,0.61446255,9.662491,-0.060528368,-0.032112043,0.022956079,18.69418,-3.882145,-45.40848
419291157121418,-0.5681892,0.6267651,9.702257,-0.060528368,-0.032112043,0.022956079,18.69418,-3.882145,-45.40848
419291159621418,-0.5681892,0.6267651,9.702257,-0.06516917,-0.0380788,0.021630133,18.69418,-3.882145,-45.40848
419291159621418,-0.5793695,0.61409986,9.744734,-0.06516917,-0.0380788,0.021630133,18.69418,-3.882145,-45.40848
419291162121418,-0.5793695,0.61409986,9.744734,-0.07127919,-0.046433993,0.020836852,18.69418,-3.882145,-45.40848
419291162121418,-0.5821399,0.62288153,9.758577,-0.07127919,-0.046433993,0.020836852,18.69418,-3.882145,-45.40848
419291164621418,-0.5821399,0.62288153,9.758577,-0.0744796,-0.053467646,0.020288372,18.69418,-3.882145,-45.40848
419291166749647,-0.5821399,0.62288153,9.758577,-0.0744796,-0.053467646,0.020288372,20.375574,-3.312706,-44.637215
419291164621418,-0.60481197,0.62356514,9.790411,-0.0744796,-0.053467646,0.020288372,20.375574,-3.312706,-44.637215
419291167121418,-0.60481197,0.62356514,9.790411,-0.075300135,-0.0585396,0.022119768,20.375574,-3.312706,-44.637215
419291167121418,-0.6317612,0.6131439,9.82139,-0.075300135,-0.0585396,0.022119768,20.375574,-3.312706,-44.637215
419291169621418,-0.6317612,0.6131439,9.82139,-0.07789914,-0.065636426,0.024251983,20.375574,-3.312706,-44.637215
419291169621418,-0.6488842,0.63737464,9.876611,-0.07789914,-0.065636426,0.024251983,20.375574,-3.312706,-44.637215
419291172121418,-0.6488842,0.63737464,9.876611,-0.078080975,-0.06733429,0.028363533,20.375574,-3.312706,-44.637215
419291172121418,-0.6663012,0.626907,9.956941,-0.078080975,-0.06733429,0.028363533,20.375574,-3.312706,-44.637215
419291174621418,-0.6663012,0.626907,9.956941,-0.07676158,-0.06401923,0.035328463,20.375574,-3.312706,-44.637215
419291176749647,-0.6663012,0.626907,9.956941,-0.07676158,-0.06401923,0.035328463,20.246704,-2.5479755,-45.587452
419291174621418,-0.67755973,0.61170626,10.010132,-0.07676158,-0.06401923,0.035328463,20.246704,-2.5479755,-45.587452
419291177121418,-0.67755973,0.61170626,10.010132,-0.073633015,-0.061460428,0.040632628,20.246704,-2.5479755,-45.587452
419291177121418,-0.6252999,0.62861055,10.021719,-0.073633015,-0.061460428,0.040632628,20.246704,-2.5479755,-45.587452
419291179621418,-0.6252999,0.62861055,10.021719,-0.07113549,-0.05743742,0.04746222,20.246704,-2.5479755,-45.587452
419291179621418,-0.54568213,0.6392243,10.039631,-0.07113549,-0.05743742,0.04746222,20.246704,-2.5479755,-45.587452
419291182121418,-0.54568213,0.6392243,10.039631,-0.06571568,-0.0529024,0.056459703,20.246704,-2.5479755,-45.587452
419291182121418,-0.46863115,0.67878,10.032867,-0.06571568,-0.0529024,0.056459703,20.246704,-2.5479755,-45.587452
419291184621418,-0.46863115,0.67878,10.032867,-0.058612354,-0.047741625,0.06299691,20.246704,-2.5479755,-45.587452
419291186749647,-0.46863115,0.67878,10.032867,-0.058612354,-0.047741625,0.06299691,19.12173,-5.429634,-46.847775
419291184621418,-0.3867516,0.6940954,10.076265,-0.058612354,-0.047741625,0.06299691,19.12173,-5.429634,-46.847775
419291187121418,-0.3867516,0.6940954,10.076265,-0.05028914,-0.04191581,0.06624133,19.12173,-5.429634,-46.847775
419291187121418,-0.27658698,0.73288494,10.1016,-0.05028914,-0.04191581,0.06624133,19.12173,-5.429634,-46.847775
419291189621418,-0.27658698,0.73288494,10.1016,-0.042167157,-0.033296973,0.06789896,19.12173,-5.429634,-46.847775
419291189621418,-0.20205767,0.7680892,10.092131,-0.042167157,-0.033296973,0.06789896,19.12173,-5.429634,-46.847775
419291192121418,-0.20205767,0.7680892,10.092131,-0.029759685,-0.02329339,0.06884543,19.12173,-5.429634,-46.847775
419291192121418,-0.08510734,0.7794945,10.067733,-0.029759685,-0.02329339,0.06884543,19.12173,-5.429634,-46.847775
419291194621418,-0.08510734,0.7794945,10.067733,-0.020702759,-0.017338976,0.06706895,19.12173,-5.429634,-46.847775
419291196749647,-0.08510734,0.7794945,10.067733,-0.020702759,-0.017338976,0.06706895,17.703352,-3.8642187,-46.79953
419291194621418,0.029839441,0.7974348,10.039642,-0.020702759,-0.017338976,0.06706895,17.703352,-3.8642187,-46.79953
419291197121418,0.029839441,0.7974348,10.039642,-0.011017062,-0.0116312895,0.064416945,17.703352,-3.8642187,-46.79953
419291197121418,0.10815984,0.8302266,10.031693,-0.011017062,-0.0116312895,0.064416945,17.703352,-3.8642187,-46.79953
419291199621418,0.10815984,0.8302266,10.031693,-0.0013807409,-0.0040294454,0.060793135,17.703352,-3.8642187,-46.79953
419291199621418,0.13649264,0.80004513,9.979694,-0.0013807409,-0.0040294454,0.060793135,17.703352,-3.8642187,-46.79953
419291202121418,0.13649264,0.80004513,9.979694,0.0070343446,0.004292072,0.054684486,17.703352,-3.8642187,-46.79953
419291202121418,0.22193442,0.84573466,9.949159,0.0070343446,0.004292072,0.054684486,17.703352,-3.8642187,-46.79953
419291204621418,0.22193442,0.84573466,9.949159,0.014305694,0.010494206,0.04878201,17.703352,-3.8642187,-46.79953
419291206749647,0.22193442,0.84573466,9.949159,0.014305694,0.010494206,0.04878201,19.163324,-4.4960146,-45.825783
419291204621418,0.2947368,0.88797206,9.913745,0.014305694,0.010494206,0.04878201,19.163324,-4.4960146,-45.825783
419291207121418,0.2947368,0.88797206,9.913745,0.024301112,0.01786301,0.039869692,19.163324,-4.4960146,-45.825783
419291207121418,0.35383886,0.92249876,9.837826,0.024301112,0.01786301,0.039869692,19.163324,-4.4960146,-45.825783
419291209621418,0.35383886,0.92249876,9.837826,0.032725118,0.02477251,0.033811703,19.163324,-4.4960146,-45.825783
419291209621418,0.3993564,0.9423206,9.825659,0.032725118,0.02477251,0.033811703,19.163324,-4.4960146,-45.825783
419291212121418,0.3993564,0.9423206,9.825659,0.040478468,0.03262575,0.026477238,19.163324,-4.4960146,-45.825783
419291212121418,0.4478077,0.9855705,9.804453,0.040478468,0.03262575,0.026477238,19.163324,-4.4960146,-45.825783
419291214621418,0.4478077,0.9855705,9.804453,0.045691445,0.04063736,0.01800506,19.163324,-4.4960146,-45.825783
419291216749647,0.4478077,0.9855705,9.804453,0.045691445,0.04063736,0.01800506,19.849035,-4.053047,-47.65514
419291214621418,0.48798198,1.0413604,9.7110815,0.045691445,0.04063736,0.01800506,19.849035,-4.053047,-47.65514
419291217121418,0.48798198,1.0413604,9.7110815,0.05000948,0.048598118,0.01204066,19.849035,-4.053047,-47.65514
419291219621418,0.48798198,1.0413604,9.7110815,0.05386114,0.055564802,0.005810618,19.849035,-4.053047,-47.65514
419291217121418,0.5148114,1.067734,9.686457,0.05386114,0.055564802,0.005810618,19.849035,-4.053047,-47.65514
419291219621418,0.57635677,1.0710671,9.630517,0.05386114,0.055564802,0.005810618,19.849035,-4.053047,-47.65514
419291222121418,0.57635677,1.0710671,9.630517,0.05337777,0.059218973,0.0017833582,19.849035,-4.053047,-47.65514
419291222121418,0.6539717,1.1133535,9.615766,0.05337777,0.059218973,0.0017833582,19.849035,-4.053047,-47.65514
419291224621418,0.6539717,1.1133535,9.615766,0.056501746,0.061859857,-0.005318611,19.849035,-4.053047,-47.65514
419291226749647,0.6539717,1.1133535,9.615766,0.056501746,0.061859857,-0.005318611,17.802357,-5.294245,-46.42735
419291224621418,0.73029894,1.1100549,9.565086,0.056501746,0.061859857,-0.005318611,17.802357,-5.294245,-46.42735
419291227121418,0.73029894,1.1100549,9.565086,0.058189735,0.06183955,-0.01291278,17.802357,-5.294245,-46.42735
419291227121418,0.78903306,1.1146275,9.513117,0.058189735,0.06183955,-0.01291278,17.802357,-5.294245,-46.42735
419291229621418,0.78903306,1.1146275,9.513117,0.058401056,0.062050875,-0.021531768,17.802357,-5.294245,-46.42735
419291229621418,0.8558528,1.111317,9.508275,0.058401056,0.062050875,-0.021531768,17.802357,-5.294245,-46.42735
419291232121418,0.8558528,1.111317,9.508275,0.055540323,0.059624124,-0.029568888,17.802357,-5.294245,-46.42735
419291232121418,0.95321476,1.0904477,9.526511,0.055540323,0.059624124,-0.029568888,17.802357,-5.294245,-46.42735
419291234621418,0.95321476,1.0904477,9.526511,0.0532476,0.055466298,-0.03734548,17.802357,-5.294245,-46.42735
419291236749647,0.95321476,1.0904477,9.526511,0.0532476,0.055466298,-0.03734548,19.365986,-3.6854534,-45.55461
419291234621418,1.0566771,1.1228775,9.525715,0.0532476,0.055466298,-0.03734548,19.365986,-3.6854534,-45.55461
419291237121418,1.0566771,1.1228775,9.525715,0.051611558,0.05113525,-0.044638604,19.365986,-3.6854534,-45.55461
419291237121418,1.1550199,1.1708168,9.554544,0.051611558,0.05113525,-0.044638604,19.365986,-3.6854534,-45.55461
419291239621418,1.1550199,1.1708168,9.554544,0.05138398,0.047597546,-0.051931717,19.365986,-3.6854534,-45.55461
419291239621418,1.2859986,1.1945765,9.571277,0.05138398,0.047597546,-0.051931717,19.365986,-3.6854534,-45.55461
419291242121418,1.2859986,1.1945765,9.571277,0.050829537,0.044092357,-0.06044229,19.365986,-3.6854534,-45.55461
419291242121418,1.3776745,1.2002006,9.543656,0.050829537,0.044092357,-0.06044229,19.365986,-3.6854534,-45.55461
419291244621418,1.3776745,1.2002006,9.543656,0.04951396,0.03746225,-0.07055583,19.365986,-3.6854534,-45.55461
419291246749647,1.3776745,1.2002006,9.543656,0.04951396,0.03746225,-0.07055583,19.365986,-3.6854534,-45.55461
419291247121418,1.3776745,1.2002006,9.543656,0.050475664,0.02963734,-0.081164,19.365986,-3.6854534,-45.55461
419291244621418,1.4998628,1.2328426,9.559129,0.050475664,0.02963734,-0.081164,19.365986,-3.6854534,-45.55461
419291247121418,1.6042153,1.2048495,9.547244,0.050475664,0.02963734,-0.081164,19.365986,-3.6854534,-45.55461
419291249621418,1.6042153,1.2048495,9.547244,0.05180169,0.019068073,-0.09391736,19.365986,-3.6854534,-45.55461
419291249621418,1.7102659,1.1997712,9.512041,0.05180169,0.019068073,-0.09391736,19.365986,-3.6854534,-45.55461
419291252121418,1.7952045,1.2684935,9.498144,0.05180169,0.019068073,-0.09391736,19.365986,-3.6854534,-45.55461
419291252121418,1.7952045,1.2684935,9.498144,0.05475243,0.008196076,-0.10562978,19.365986,-3.6854534,-45.55461
419291254621418,1.7952045,1.2684935,9.498144,0.056584388,-0.005447671,-0.116935596,19.365986,-3.6854534,-45.55461
419291256749647,1.7952045,1.2684935,9.498144,0.056584388,-0.005447671,-0.116935596,19.340973,-4.2063513,-44.923084
419291254621418,1.8927937,1.3073449,9.468382,0.056584388,-0.005447671,-0.116935596,19.340973,-4.2063513,-44.923084
419291257121418,1.8927937,1.3073449,9.468382,0.057623044,-0.015193652,-0.12707965,19.340973,-4.2063513,-44.923084
419291257121418,1.9836336,1.3255002,9.399217,0.057623044,-0.015193652,-0.12707965,19.340973,-4.2063513,-44.923084
419291259621418,1.9836336,1.3255002,9.399217,0.057868376,-0.02339498,-0.1375153,19.340973,-4.2063513,-44.923084
419291259621418,2.0740013,1.3465159,9.333929,0.057868376,-0.02339498,-0.1375153,19.340973,-4.2063513,-44.923084
419291262121418,2.2017436,1.3439777,9.276991,0.057868376,-0.02339498,-0.1375153,19.340973,-4.2063513,-44.923084
419291262121418,2.2017436,1.3439777,9.276991,0.05677239,-0.031898897,-0.14689691,19.340973,-4.2063513,-44.923084
419291264621418,2.2017436,1.3439777,9.276991,0.05515513,-0.04008091,-0.15478763,19.340973,-4.2063513,-44.923084
419291266749647,2.2017436,1.3439777,9.276991,0.05515513,-0.04008091,-0.15478763,18.653055,-4.820488,-46.8863
419291264621418,2.3129144,1.3917663,9.212191,0.05515513,-0.04008091,-0.15478763,18.653055,-4.820488,-46.8863
419291267121418,2.3129144,1.3917663,9.212191,0.051675282,-0.04615893,-0.16147135,18.653055,-4.820488,-46.8863
419291267121418,2.4336808,1.4182982,9.161276,0.051675282,-0.04615893,-0.16147135,18.653055,-4.820488,-46.8863
419291269621418,2.4336808,1.4182982,9.161276,0.042986207,-0.049834326,-0.1704845,18.653055,-4.820488,-46.8863
419291269621418,2.570045,1.4924078,9.1164055,0.042986207,-0.049834326,-0.1704845,18.653055,-4.820488,-46.8863
419291272121418,2.713568,1.5478287,9.116631,0.042986207,-0.049834326,-0.1704845,18.653055,-4.820488,-46.8863
419291272121418,2.713568,1.5478287,9.116631,0.03547135,-0.049805388,-0.1765381,18.653055,-4.820488,-46.8863
419291274621418,2.713568,1.5478287,9.116631,0.02594154,-0.047819458,-0.18064104,18.653055,-4.820488,-46.8863
419291276749647,2.713568,1.5478287,9.116631,0.02594154,-0.047819458,-0.18064104,18.361094,-3.9122286,-45.11048
419291274621418,2.7825685,1.5877098,9.088919,0.02594154,-0.047819458,-0.18064104,18.361094,-3.9122286,-45.11048
419291277121418,2.7825685,1.5877098,9.088919,0.015345205,-0.04478999,-0.18423428,18.361094,-3.9122286,-45.11048
419291277121418,2.879229,1.6056476,9.138639,0.015345205,-0.04478999,-0.18423428,18.361094,-3.9122286,-45.11048
419291279621418,2.879229,1.6056476,9.138639,0.0051404303,-0.040154696,-0.18426996,18.361094,-3.9122286,-45.11048
419291279621418,3.015253,1.6358615,9.237019,0.0051404303,-0.040154696,-0.18426996,18.361094,-3.9122286,-45.11048
419291282121418,3.015253,1.6358615,9.237019,-0.0058334065,-0.030840632,-0.18294539,18.361094,-3.9122286,-45.11048
419291282121418,3.1691802,1.6847119,9.310501,-0.0058334065,-0.030840632,-0.18294539,18.361094,-3.9122286,-45.11048
419291284621418,3.1691802,1.6847119,9.310501,-0.01556661,-0.014035126,-0.18008552,18.361094,-3.9122286,-45.11048
419291286749647,3.1691802,1.6847119,9.310501,-0.01556661,-0.014035126,-0.18008552,18.361094,-3.9122286,-45.11048
419291284621418,3.3168757,1.7322423,9.420358,-0.01556661,-0.014035126,-0.18008552,18.361094,-3.9122286,-45.11048
419291287121418,3.3168757,1.7322423,9.420358,-0.024188623,0.0055265184,-0.17561057,18.361094,-3.9122286,-45.11048
419291287121418,3.4699762,1.7320485,9.5341,-0.024188623,0.0055265184,-0.17561057,18.361094,-3.9122286,-45.11048
419291289621418,3.4699762,1.7320485,9.5341,-0.030920643,0.028271116,-0.1710601,18.361094,-3.9122286,-45.11048
419291289621418,3.6127224,1.682876,9.66704,-0.030920643,0.028271116,-0.1710601,18.361094,-3.9122286,-45.11048
419291292121418,3.6127224,1.682876,9.66704,-0.032663092,0.05267264,-0.17013542,18.361094,-3.9122286,-45.11048
419291292121418,3.7847457,1.6115634,9.756676,-0.032663092,0.05267264,-0.17013542,18.361094,-3.9122286,-45.11048
419291294621418,3.7847457,1.6115634,9.756676,-0.03268621,0.07553363,-0.16960275,18.361094,-3.9122286,-45.11048
419291296749647,3.7847457,1.6115634,9.756676,-0.03268621,0.07553363,-0.16960275,20.765095,-2.112174,-46.508106
419291294621418,3.9283414,1.5613993,9.838748,-0.03268621,0.07553363,-0.16960275,20.765095,-2.112174,-46.508106
419291297121418,3.9283414,1.5613993,9.838748,-0.03124811,0.09728674,-0.17008212,20.765095,-2.112174,-46.508106
419291297121418,4.1324425,1.4933573,9.902322,-0.03124811,0.09728674,-0.17008212,20.765095,-2.112174,-46.508106
419291299621418,4.1324425,1.4933573,9.902322,-0.026891273,0.11336542,-0.17326699,20.765095,-2.112174,-46.508106
419291299621418,4.2843904,1.4649562,9.988723,-0.026891273,0.11336542,-0.17326699,20.765095,-2.112174,-46.508106
419291302121418,4.2843904,1.4649562,9.988723,-0.021235663,0.12445927,-0.17892261,20.765095,-2.112174,-46.508106
419291302121418,4.428464,1.4393151,10.052825,-0.021235663,0.12445927,-0.17892261,20.765095,-2.112174,-46.508106
419291304621418,4.428464,1.4393151,10.052825,-0.01804771,0.1352835,-0.18733563,20.765095,-2.112174,-46.508106
419291306749647,4.428464,1.4393151,10.052825,-0.01804771,0.1352835,-0.18733563,17.83222,-4.628949,-45.849293
419291304621418,4.560919,1.4217558,10.112783,-0.01804771,0.1352835,-0.18733563,17.83222,-4.628949,-45.849293
419291307121418,4.560919,1.4217558,10.112783,-0.010115081,0.1420514,-0.19600202,17.83222,-4.628949,-45.849293
419291307121418,4.676406,1.3957663,10.143513,-0.010115081,0.1420514,-0.19600202,17.83222,-4.628949,-45.849293
419291309621418,4.676406,1.3957663,10.143513,-0.0031139469,0.14355001,-0.20595774,17.83222,-4.628949,-45.849293
419291309621418,4.7674046,1.316769,10.148021,-0.0031139469,0.14355001,-0.20595774,17.83222,-4.628949,-45.849293
419291312121418,4.7674046,1.316769,10.148021,0.0036891978,0.1420657,-0.21541466,17.83222,-4.628949,-45.849293
419291312121418,4.8568645,1.2326139,10.118106,0.0036891978,0.1420657,-0.21541466,17.83222,-4.628949,-45.849293
419291314621418,4.8568645,1.2326139,10.118106,0.0092549985,0.1341494,-0.22486082,17.83222,-4.628949,-45.849293
419291316749647,4.8568645,1.2326139,10.118106,0.0092549985,0.1341494,-0.22486082,21.085052,-2.3362398,-45.88258
419291314621418,4.9495006,1.1573824,10.110694,0.0092549985,0.1341494,-0.22486082,21.085052,-2.3362398,-45.88258
419291317121418,4.9495006,1.1573824,10.110694,0.013879115,0.11911663,-0.23193446,21.085052,-2.3362398,-45.88258
419291317121418,5.0413237,1.1322939,10.081307,0.013879115,0.11911663,-0.23193446,21.085052,-2.3362398,-45.88258
419291319621418,5.0413237,1.1322939,10.081307,0.012778763,0.10012672,-0.24023794,21.085052,-2.3362398,-45.88258
419291319621418,5.201448,1.0679538,10.060458,0.012778763,0.10012672,-0.24023794,21.085052,-2.3362398,-45.88258
419291322121418,5.201448,1.0679538,10.060458,0.013505254,0.07718183,-0.25077787,21.085052,-2.3362398,-45.88258
419291322121418,5.33382,1.0169442,10.051689,0.013505254,0.07718183,-0.25077787,21.085052,-2.3362398,-45.88258
419291324621418,5.33382,1.0169442,10.051689,0.011425298,0.05494047,-0.261661,21.085052,-2.3362398,-45.88258
419291326749647,5.33382,1.0169442,10.051689,0.011425298,0.05494047,-0.261661,19.888605,-3.098957,-44.657917
419291324621418,5.5044513,0.930289,10.025361,0.011425298,0.05494047,-0.261661,19.888605,-3.098957,-44.657917
419291327121418,5.5044513,0.930289,10.025361,0.006128301,0.032564115,-0.27403274,19.888605,-3.098957,-44.657917
419291327121418,5.6258793,0.9117942,10.014348,0.006128301,0.032564115,-0.27403274,19.888605,-3.098957,-44.657917
419291329621418,5.6258793,0.9117942,10.014348,4.933188E-4,0.013700713,-0.28764105,19.888605,-3.098957,-44.657917
419291332121418,5.6258793,0.9117942,10.014348,-0.0054663345,-0.003905343,-0.30240375,19.888605,-3.098957,-44.657917
419291329621418,5.7579956,0.8971573,10.0328455,-0.0054663345,-0.003905343,-0.30240375,19.888605,-3.098957,-44.657917
419291332121418,5.852149,0.88123727,10.027805,-0.0054663345,-0.003905343,-0.30240375,19.888605,-3.098957,-44.657917
419291334621418,5.852149,0.88123727,10.027805,-0.015881848,-0.019995164,-0.31810403,19.888605,-3.098957,-44.657917
419291336749647,5.852149,0.88123727,10.027805,-0.015881848,-0.019995164,-0.31810403,20.305033,-1.2032118,-43.063873
419291334621418,6.0110674,0.7858254,10.078462,-0.015881848,-0.019995164,-0.31810403,20.305033,-1.2032118,-43.063873
419291337121418,6.0110674,0.7858254,10.078462,-0.02441438,-0.037139837,-0.33411807,20.305033,-1.2032118,-43.063873
419291337121418,6.118726,0.7316887,10.113589,-0.02441438,-0.037139837,-0.33411807,20.305033,-1.2032118,-43.063873
419291339621418,6.118726,0.7316887,10.113589,-0.03370471,-0.05601631,-0.35233197,20.305033,-1.2032118,-43.063873
419291339621418,6.2388415,0.62461644,10.163876,-0.03370471,-0.05601631,-0.35233197,20.305033,-1.2032118,-43.063873
419291342121418,6.2388415,0.62461644,10.163876,-0.04186572,-0.07568915,-0.36907092,20.305033,-1.2032118,-43.063873
419291342121418,6.3523116,0.5416966,10.195986,-0.04186572,-0.07568915,-0.36907092,20.305033,-1.2032118,-43.063873
419291344621418,6.3523116,0.5416966,10.195986,-0.048548438,-0.09850022,-0.3879043,20.305033,-1.2032118,-43.063873
419291346749647,6.3523116,0.5416966,10.195986,-0.048548438,-0.09850022,-0.3879043,19.181149,-4.095894,-45.387783
419291344621418,6.4926043,0.5134181,10.246271,-0.048548438,-0.09850022,-0.3879043,19.181149,-4.095894,-45.387783
419291347121418,6.4926043,0.5134181,10.246271,-0.054218546,-0.12280549,-0.40750113,19.181149,-4.095894,-45.387783
419291347121418,6.665274,0.4707708,10.300754,-0.054218546,-0.12280549,-0.40750113,19.181149,-4.095894,-45.387783
419291349621418,6.665274,0.4707708,10.300754,-0.061164632,-0.14937532,-0.42962867,19.181149,-4.095894,-45.387783
419291349621418,6.8534946,0.45665285,10.421316,-0.061164632,-0.14937532,-0.42962867,19.181149,-4.095894,-45.387783
419291352121418,6.8534946,0.45665285,10.421316,-0.065799765,-0.17347275,-0.453067,19.181149,-4.095894,-45.387783
419291352121418,7.0079947,0.39645213,10.525198,-0.065799765,-0.17347275,-0.453067,19.181149,-4.095894,-45.387783
419291354621418,7.0079947,0.39645213,10.525198,-0.07165517,-0.19324905,-0.47756535,19.181149,-4.095894,-45.387783
419291356749647,7.0079947,0.39645213,10.525198,-0.07165517,-0.19324905,-0.47756535,21.183435,-3.7599688,-44.902637
419291357121418,7.0079947,0.39645213,10.525198,-0.07211833,-0.21301214,-0.50410974,21.183435,-3.7599688,-44.902637
419291354621418,7.1907887,0.3347933,10.664457,-0.07211833,-0.21301214,-0.50410974,21.183435,-3.7599688,-44.902637
419291359621418,7.1907887,0.3347933,10.664457,-0.06951986,-0.23151465,-0.5318704,21.183435,-3.7599688,-44.902637
419291357121418,7.286377,0.27987447,10.85466,-0.06951986,-0.23151465,-0.5318704,21.183435,-3.7599688,-44.902637
419291362121418,7.286377,0.27987447,10.85466,-0.0648976,-0.24503897,-0.5628086,21.183435,-3.7599688,-44.902637
419291359621418,7.4057584,0.19608825,11.013703,-0.0648976,-0.24503897,-0.5628086,21.183435,-3.7599688,-44.902637
419291362121418,7.4503174,0.09730213,11.137148,-0.0648976,-0.24503897,-0.5628086,21.183435,-3.7599688,-44.902637
419291364621418,7.5130377,-0.014238508,11.272626,-0.0648976,-0.24503897,-0.5628086,21.183435,-3.7599688,-44.902637
419291364621418,7.5130377,-0.014238508,11.272626,-0.05493269,-0.25777817,-0.5935607,21.183435,-3.7599688,-44.902637
419291366749647,7.5130377,-0.014238508,11.272626,-0.05493269,-0.25777817,-0.5935607,19.396473,-3.0264568,-45.58432
419291367121418,7.5130377,-0.014238508,11.272626,-0.041008994,-0.27156413,-0.6247427,19.396473,-3.0264568,-45.58432
419291367121418,7.5195494,-0.19311136,11.370986,-0.041008994,-0.27156413,-0.6247427,19.396473,-3.0264568,-45.58432
419291369621418,7.5195494,-0.19311136,11.370986,-0.02214444,-0.27996808,-0.65533197,19.396473,-3.0264568,-45.58432
419291369621418,7.5301013,-0.32989183,11.485069,-0.02214444,-0.27996808,-0.65533197,19.396473,-3.0264568,-45.58432
419291372121418,7.5301013,-0.32989183,11.485069,-1.8143095E-5,-0.28428918,-0.6847542,19.396473,-3.0264568,-45.58432
419291372121418,7.506247,-0.42782283,11.5829315,-1.8143095E-5,-0.28428918,-0.6847542,19.396473,-3.0264568,-45.58432
419291374621418,7.5222454,-0.5370509,11.626758,-1.8143095E-5,-0.28428918,-0.6847542,19.396473,-3.0264568,-45.58432
419291374621418,7.5222454,-0.5370509,11.626758,0.025151579,-0.28231627,-0.713262,19.396473,-3.0264568,-45.58432
419291376749647,7.5222454,-0.5370509,11.626758,0.025151579,-0.28231627,-0.713262,20.277191,-1.888979,-45.61716
419291377121418,7.5222454,-0.5370509,11.626758,0.050291903,-0.27267814,-0.73830026,20.277191,-1.888979,-45.61716
419291379621418,7.5222454,-0.5370509,11.626758,0.077467605,-0.2548849,-0.7619752,20.277191,-1.888979,-45.61716
419291377121418,7.5226903,-0.6352946,11.6675005,0.077467605,-0.2548849,-0.7619752,20.277191,-1.888979,-45.61716
419291379621418,7.5238457,-0.71982056,11.708055,0.077467605,-0.2548849,-0.7619752,20.277191,-1.888979,-45.61716
419291382121418,7.5238457,-0.71982056,11.708055,0.10629409,-0.22954385,-0.78326964,20.277191,-1.888979,-45.61716
419291382121418,7.5391507,-0.7853857,11.72638,0.10629409,-0.22954385,-0.78326964,20.277191,-1.888979,-45.61716
419291384621418,7.557667,-0.85507786,11.739731,0.10629409,-0.22954385,-0.78326964,20.277191,-1.888979,-45.61716
419291384621418,7.557667,-0.85507786,11.739731,0.13228972,-0.19731404,-0.8054098,20.277191,-1.888979,-45.61716
419291386749647,7.557667,-0.85507786,11.739731,0.13228972,-0.19731404,-0.8054098,18.332006,-4.5853977,-46.448242
419291387121418,7.557667,-0.85507786,11.739731,0.15698507,-0.16002978,-0.8258092,18.332006,-4.5853977,-46.448242
419291387121418,7.518381,-0.92535937,11.726445,0.15698507,-0.16002978,-0.8258092,18.332006,-4.5853977,-46.448242
419291389621418,7.518381,-0.92535937,11.726445,0.18400109,-0.11988473,-0.8454152,18.332006,-4.5853977,-46.448242
419291389621418,7.535195,-1.0685089,11.695188,0.18400109,-0.11988473,-0.8454152,18.332006,-4.5853977,-46.448242
419291392121418,7.535195,-1.0685089,11.695188,0.20823966,-0.07893133,-0.86462915,18.332006,-4.5853977,-46.448242
419291392121418,7.5336437,-1.1702688,11.622541,0.20823966,-0.07893133,-0.86462915,18.332006,-4.5853977,-46.448242
419291394621418,7.5336437,-1.1702688,11.622541,0.2298399,-0.03612805,-0.882784,18.332006,-4.5853977,-46.448242
419291394621418,7.4853125,-1.2899944,11.556177,0.2298399,-0.03612805,-0.882784,18.332006,-4.5853977,-46.448242
419291396749647,7.4853125,-1.2899944,11.556177,0.2298399,-0.03612805,-0.882784,21.054876,-2.9983864,-46.156754
419291397121418,7.4853125,-1.2899944,11.556177,0.24949269,0.003411796,-0.9002701,21.054876,-2.9983864,-46.156754
419291397121418,7.529311,-1.368938,11.504309,0.24949269,0.003411796,-0.9002701,21.054876,-2.9983864,-46.156754
419291399621418,7.529311,-1.368938,11.504309,0.26436782,0.03713823,-0.9185684,21.054876,-2.9983864,-46.156754
419291399621418,7.476034,-1.5169574,11.42029,0.26436782,0.03713823,-0.9185684,21.054876,-2.9983864,-46.156754
419291402121418,7.476034,-1.5169574,11.42029,0.27723536,0.06568727,-0.9380127,21.054876,-2.9983864,-46.156754
419291402121418,7.4510236,-1.6292422,11.3823595,0.27723536,0.06568727,-0.9380127,21.054876,-2.9983864,-46.156754
419291404621418,7.4510236,-1.6292422,11.3823595,0.28672382,0.09027683,-0.9580443,21.054876,-2.9983864,-46.156754
419291404621418,7.444961,-1.7154446,11.348589,0.28672382,0.09027683,-0.9580443,21.054876,-2.9983864,-46.156754
419291406749647,7.444961,-1.7154446,11.348589,0.28672382,0.09027683,-0.9580443,18.765482,-2.2816563,-43.656494
419291407121418,7.444961,-1.7154446,11.348589,0.29400256,0.10620888,-0.9803402,18.765482,-2.2816563,-43.656494
419291407121418,7.4165916,-1.7879561,11.334009,0.29400256,0.10620888,-0.9803402,18.765482,-2.2816563,-43.656494
419291409621418,7.4165916,-1.7879561,11.334009,0.29822686,0.11544077,-1.0048742,18.765482,-2.2816563,-43.656494
419291409621418,7.408724,-1.8651034,11.299634,0.29822686,0.11544077,-1.0048742,18.765482,-2.2816563,-43.656494
419291412121418,7.408724,-1.8651034,11.299634,0.30324507,0.11594397,-1.0316678,18.765482,-2.2816563,-43.656494
419291412121418,7.3844824,-1.9512928,11.287514,0.30324507,0.11594397,-1.0316678,18.765482,-2.2816563,-43.656494
419291414621418,7.3844824,-1.9512928,11.287514,0.3090577,0.107716165,-1.0596801,18.765482,-2.2816563,-43.656494
419291414621418,7.3571997,-1.9863045,11.248355,0.3090577,0.107716165,-1.0596801,18.765482,-2.2816563,-43.656494
419291416749647,7.3571997,-1.9863045,11.248355,0.3090577,0.107716165,-1.0596801,21.127735,-1.4136448,-45.92417
419291417121418,7.3571997,-1.9863045,11.248355,0.31045172,0.09268519,-1.0898696,21.127735,-1.4136448,-45.92417
419291417121418,7.299653,-2.0637422,11.244392,0.31045172,0.09268519,-1.0898696,21.127735,-1.4136448,-45.92417
419291419621418,7.299653,-2.0637422,11.244392,0.3160796,0.06797033,-1.1226083,21.127735,-1.4136448,-45.92417
419291419621418,7.2501197,-2.1681309,11.17693,0.3160796,0.06797033,-1.1226083,21.127735,-1.4136448,-45.92417
419291422121418,7.2501197,-2.1681309,11.17693,0.31957793,0.03665621,-1.1554086,21.127735,-1.4136448,-45.92417
419291422121418,7.1934466,-2.2650514,11.133651,0.31957793,0.03665621,-1.1554086,21.127735,-1.4136448,-45.92417
419291424621418,7.1934466,-2.2650514,11.133651,0.31891462,-3.1715818E-4,-1.1903952,21.127735,-1.4136448,-45.92417
419291424621418,7.0942583,-2.304578,11.08975,0.31891462,-3.1715818E-4,-1.1903952,21.127735,-1.4136448,-45.92417
419291426749647,7.0942583,-2.304578,11.08975,0.31891462,-3.1715818E-4,-1.1903952,21.621267,-1.5003185,-46.36524
419291427121418,7.0942583,-2.304578,11.08975,0.3210688,-0.04211335,-1.2254905,21.621267,-1.5003185,-46.36524
419291427121418,7.092224,-2.4122434,11.0955,0.3210688,-0.04211335,-1.2254905,21.621267,-1.5003185,-46.36524
419291429621418,7.092224,-2.4122434,11.0955,0.31865346,-0.08635005,-1.2595285,21.621267,-1.5003185,-46.36524
419291429621418,7.024954,-2.474064,11.088443,0.31865346,-0.08635005,-1.2595285,21.621267,-1.5003185,-46.36524
419291432121418,7.024954,-2.474064,11.088443,0.32048056,-0.13241933,-1.2941123,21.621267,-1.5003185,-46.36524
419291432121418,7.008809,-2.5240126,11.104146,0.32048056,-0.13241933,-1.2941123,21.621267,-1.5003185,-46.36524
419291434621418,7.008809,-2.5240126,11.104146,0.32348686,-0.17622979,-1.3289484,21.621267,-1.5003185,-46.36524
419291434621418,7.047839,-2.5620944,11.130848,0.32348686,-0.17622979,-1.3289484,21.621267,-1.5003185,-46.36524
419291436749647,7.047839,-2.5620944,11.130848,0.32348686,-0.17622979,-1.3289484,21.246277,-2.4608717,-46.785347
419291437121418,7.047839,-2.5620944,11.130848,0.32336244,-0.22162575,-1.3626126,21.246277,-2.4608717,-46.785347
419291437121418,7.021687,-2.6104133,11.207303,0.32336244,-0.22162575,-1.3626126,21.246277,-2.4608717,-46.785347
419291439621418,7.021687,-2.6104133,11.207303,0.32890072,-0.26347423,-1.3988615,21.246277,-2.4608717,-46.785347
419291439621418,7.015725,-2.6130993,11.22493,0.32890072,-0.26347423,-1.3988615,21.246277,-2.4608717,-46.785347
419291442121418,7.015725,-2.6130993,11.22493,0.33526346,-0.2992466,-1.436382,21.246277,-2.4608717,-46.785347
419291442121418,6.993025,-2.6184275,11.219922,0.33526346,-0.2992466,-1.436382,21.246277,-2.4608717,-46.785347
419291444621418,6.993025,-2.6184275,11.219922,0.34606564,-0.3301068,-1.4750165,21.246277,-2.4608717,-46.785347
419291444621418,6.9097185,-2.6273081,11.216882,0.34606564,-0.3301068,-1.4750165,21.246277,-2.4608717,-46.785347
419291446749647,6.9097185,-2.6273081,11.216882,0.34606564,-0.3301068,-1.4750165,19.76098,-2.3468237,-46.82368
419291447121418,6.9097185,-2.6273081,11.216882,0.35917762,-0.3528902,-1.5129986,19.76098,-2.3468237,-46.82368
419291447121418,6.829041,-2.6845157,11.17511,0.35917762,-0.3528902,-1.5129986,19.76098,-2.3468237,-46.82368
419291449621418,6.829041,-2.6845157,11.17511,0.37687024,-0.3658536,-1.5516977,19.76098,-2.3468237,-46.82368
419291449621418,6.6642256,-2.7484064,11.169705,0.37687024,-0.3658536,-1.5516977,19.76098,-2.3468237,-46.82368
419291452121418,6.6642256,-2.7484064,11.169705,0.39410204,-0.3714773,-1.5868169,19.76098,-2.3468237,-46.82368
419291452121418,6.4937434,-2.7816257,11.099247,0.39410204,-0.3714773,-1.5868169,19.76098,-2.3468237,-46.82368
419291454621418,6.4937434,-2.7816257,11.099247,0.41364577,-0.37207848,-1.61883,19.76098,-2.3468237,-46.82368
419291454621418,6.293323,-2.868675,11.006679,0.41364577,-0.37207848,-1.61883,19.76098,-2.3468237,-46.82368
419291456749647,6.293323,-2.868675,11.006679,0.41364577,-0.37207848,-1.61883,18.768438,-2.311576,-46.543373
419291457121418,6.293323,-2.868675,11.006679,0.43353987,-0.36840397,-1.6473824,18.768438,-2.311576,-46.543373
419291457121418,6.1578975,-2.9225905,10.886253,0.43353987,-0.36840397,-1.6473824,18.768438,-2.311576,-46.543373
419291459621418,6.1578975,-2.9225905,10.886253,0.45352098,-0.36253172,-1.6725689,18.768438,-2.311576,-46.543373
419291459621418,5.930679,-2.9909759,10.788624,0.45352098,-0.36253172,-1.6725689,18.768438,-2.311576,-46.543373
419291462121418,5.930679,-2.9909759,10.788624,0.474114,-0.35620093,-1.695836,18.768438,-2.311576,-46.543373
419291462121418,5.7373548,-3.0412922,10.6545,0.474114,-0.35620093,-1.695836,18.768438,-2.311576,-46.543373
419291464621418,5.7373548,-3.0412922,10.6545,0.4933378,-0.3481959,-1.7161479,18.768438,-2.311576,-46.543373
419291464621418,5.5200377,-3.1031275,10.494167,0.4933378,-0.3481959,-1.7161479,18.768438,-2.311576,-46.543373
419291466749647,5.5200377,-3.1031275,10.494167,0.4933378,-0.3481959,-1.7161479,19.458225,-1.7163372,-46.403442
419291467121418,5.5200377,-3.1031275,10.494167,0.5108697,-0.3361553,-1.7341032,19.458225,-1.7163372,-46.403442
419291467121418,5.297183,-3.15771,10.330819,0.5108697,-0.3361553,-1.7341032,19.458225,-1.7163372,-46.403442
419291469621418,5.297183,-3.15771,10.330819,0.52752316,-0.3262602,-1.7491741,19.458225,-1.7163372,-46.403442
419291469621418,5.050271,-3.1969812,10.177225,0.52752316,-0.3262602,-1.7491741,19.458225,-1.7163372,-46.403442
419291472121418,5.050271,-3.1969812,10.177225,0.54078364,-0.3173781,-1.7606746,19.458225,-1.7163372,-46.403442
419291472121418,4.830368,-3.225678,9.980125,0.54078364,-0.3173781,-1.7606746,19.458225,-1.7163372,-46.403442
419291474621418,4.830368,-3.225678,9.980125,0.55185026,-0.31006593,-1.7686317,19.458225,-1.7163372,-46.403442
419291474621418,4.648472,-3.2987177,9.771895,0.55185026,-0.31006593,-1.7686317,19.458225,-1.7163372,-46.403442
419291476749647,4.648472,-3.2987177,9.771895,0.55185026,-0.31006593,-1.7686317,19.628998,-1.5505991,-44.735096
419291477121418,4.648472,-3.2987177,9.771895,0.5588027,-0.30679792,-1.7759829,19.628998,-1.5505991,-44.735096
419291477121418,4.518503,-3.3053625,9.571493,0.5588027,-0.30679792,-1.7759829,19.628998,-1.5505991,-44.735096
419291479621418,4.518503,-3.3053625,9.571493,0.5619453,-0.30199444,-1.7814437,19.628998,-1.5505991,-44.735096
419291479621418,4.3551917,-3.3453417,9.387232,0.5619453,-0.30199444,-1.7814437,19.628998,-1.5505991,-44.735096
419291482121418,4.3551917,-3.3453417,9.387232,0.5608217,-0.2992741,-1.7834332,19.628998,-1.5505991,-44.735096
419291482121418,4.2420073,-3.401998,9.213702,0.5608217,-0.2992741,-1.7834332,19.628998,-1.5505991,-44.735096
419291484621418,4.2420073,-3.401998,9.213702,0.5545075,-0.29514295,-1.7875643,19.628998,-1.5505991,-44.735096
419291484621418,4.1070986,-3.4107792,9.056067,0.5545075,-0.29514295,-1.7875643,19.628998,-1.5505991,-44.735096
419291486749647,4.1070986,-3.4107792,9.056067,0.5545075,-0.29514295,-1.7875643,20.81434,-1.0625038,-47.011463
419291487121418,4.1070986,-3.4107792,9.056067,0.54479456,-0.29050094,-1.7940396,20.81434,-1.0625038,-47.011463
419291487121418,3.9795024,-3.3987243,8.931819,0.54479456,-0.29050094,-1.7940396,20.81434,-1.0625038,-47.011463
419291489621418,3.9795024,-3.3987243,8.931819,0.5322311,-0.2883548,-1.8016843,20.81434,-1.0625038,-47.011463
419291489621418,3.839484,-3.4137459,8.852129,0.5322311,-0.2883548,-1.8016843,20.81434,-1.0625038,-47.011463
419291492121418,3.839484,-3.4137459,8.852129,0.51735485,-0.28484088,-1.8094642,20.81434,-1.0625038,-47.011463
419291494621418,3.839484,-3.4137459,8.852129,0.502521,-0.28228688,-1.8208352,20.81434,-1.0625038,-47.011463
419291492121418,3.7472148,-3.3922136,8.796459,0.502521,-0.28228688,-1.8208352,20.81434,-1.0625038,-47.011463
419291496749647,3.7472148,-3.3922136,8.796459,0.502521,-0.28228688,-1.8208352,19.679022,-0.50880194,-45.998158
419291494621418,3.6386628,-3.3941166,8.760648,0.502521,-0.28228688,-1.8208352,19.679022,-0.50880194,-45.998158
419291497121418,3.6386628,-3.3941166,8.760648,0.48688373,-0.28205657,-1.8324746,19.679022,-0.50880194,-45.998158
419291497121418,3.528285,-3.3637097,8.79262,0.48688373,-0.28205657,-1.8324746,19.679022,-0.50880194,-45.998158
419291499621418,3.528285,-3.3637097,8.79262,0.47412512,-0.28161985,-1.8505862,19.679022,-0.50880194,-45.998158
419291499621418,3.4080222,-3.354784,8.767043,0.47412512,-0.28161985,-1.8505862,19.679022,-0.50880194,-45.998158
419291502121418,3.4080222,-3.354784,8.767043,0.46550632,-0.2821138,-1.87125,19.679022,-0.50880194,-45.998158
419291502121418,3.2373383,-3.3230817,8.762976,0.46550632,-0.2821138,-1.87125,19.679022,-0.50880194,-45.998158
419291504621418,3.2373383,-3.3230817,8.762976,0.45648184,-0.28812224,-1.8927629,19.679022,-0.50880194,-45.998158
419291506749647,3.2373383,-3.3230817,8.762976,0.45648184,-0.28812224,-1.8927629,21.522573,-0.073441505,-47.041298
419291504621418,3.0561604,-3.3066554,8.7620325,0.45648184,-0.28812224,-1.8927629,21.522573,-0.073441505,-47.041298
419291507121418,3.0561604,-3.3066554,8.7620325,0.45041203,-0.2959655,-1.9163859,21.522573,-0.073441505,-47.041298
419291507121418,2.8520389,-3.3097262,8.767271,0.45041203,-0.2959655,-1.9163859,21.522573,-0.073441505,-47.041298
419291509621418,2.8520389,-3.3097262,8.767271,0.44431895,-0.30710715,-1.9430413,21.522573,-0.073441505,-47.041298
419291512121418,2.8520389,-3.3097262,8.767271,0.44219047,-0.32036465,-1.9715501,21.522573,-0.073441505,-47.041298
419291509621418,2.6251187,-3.2674906,8.788499,0.44219047,-0.32036465,-1.9715501,21.522573,-0.073441505,-47.041298
419291512121418,2.3993926,-3.2421293,8.802488,0.44219047,-0.32036465,-1.9715501,21.522573,-0.073441505,-47.041298
419291514621418,2.3993926,-3.2421293,8.802488,0.44285336,-0.335988,-1.9992481,21.522573,-0.073441505,-47.041298
419291516749647,2.3993926,-3.2421293,8.802488,0.44285336,-0.335988,-1.9992481,19.346558,-0.5451851,-46.307915
419291514621418,2.1930792,-3.184984,8.817134,0.44285336,-0.335988,-1.9992481,19.346558,-0.5451851,-46.307915
419291517121418,2.1930792,-3.184984,8.817134,0.4456143,-0.3542717,-2.0277517,19.346558,-0.5451851,-46.307915
419291517121418,2.0244966,-3.045231,8.844487,0.4456143,-0.3542717,-2.0277517,19.346558,-0.5451851,-46.307915
419291519621418,2.0244966,-3.045231,8.844487,0.45072624,-0.37242162,-2.055068,19.346558,-0.5451851,-46.307915
419291519621418,1.8514296,-2.9617023,8.858558,0.45072624,-0.37242162,-2.055068,19.346558,-0.5451851,-46.307915
419291522121418,1.8514296,-2.9617023,8.858558,0.45877483,-0.39214998,-2.0829093,19.346558,-0.5451851,-46.307915
419291522121418,1.6282319,-2.8305156,8.843849,0.45877483,-0.39214998,-2.0829093,19.346558,-0.5451851,-46.307915
419291524621418,1.6282319,-2.8305156,8.843849,0.46996805,-0.41117024,-2.1099868,19.346558,-0.5451851,-46.307915
419291526749647,1.6282319,-2.8305156,8.843849,0.46996805,-0.41117024,-2.1099868,20.574583,0.8655052,-48.625874
419291524621418,1.3948735,-2.69749,8.796004,0.46996805,-0.41117024,-2.1099868,20.574583,0.8655052,-48.625874
419291527121418,1.3948735,-2.69749,8.796004,0.48205137,-0.42650604,-2.138043,20.574583,0.8655052,-48.625874
419291527121418,1.1021051,-2.6477776,8.685064,0.48205137,-0.42650604,-2.138043,20.574583,0.8655052,-48.625874
419291529621418,1.1021051,-2.6477776,8.685064,0.49236545,-0.44257575,-2.1597843,20.574583,0.8655052,-48.625874
419291529621418,0.78028566,-2.569606,8.531712,0.49236545,-0.44257575,-2.1597843,20.574583,0.8655052,-48.625874
419291532121418,0.78028566,-2.569606,8.531712,0.5000128,-0.45599788,-2.178685,20.574583,0.8655052,-48.625874
419291532121418,0.43663454,-2.5421066,8.322457,0.5000128,-0.45599788,-2.178685,20.574583,0.8655052,-48.625874
419291534621418,0.43663454,-2.5421066,8.322457,0.5044962,-0.46488875,-2.1918418,20.574583,0.8655052,-48.625874
419291536749647,0.43663454,-2.5421066,8.322457,0.5044962,-0.46488875,-2.1918418,19.56375,0.5053549,-48.327744
419291534621418,0.11184866,-2.566518,8.118269,0.5044962,-0.46488875,-2.1918418,19.56375,0.5053549,-48.327744
419291537121418,0.11184866,-2.566518,8.118269,0.5033197,-0.46885532,-2.1992838,19.56375,0.5053549,-48.327744
419291537121418,-0.22450139,-2.6102674,7.8760343,0.5033197,-0.46885532,-2.1992838,19.56375,0.5053549,-48.327744
419291539621418,-0.22450139,-2.6102674,7.8760343,0.49012914,-0.4708677,-2.1998246,19.56375,0.5053549,-48.327744
419291539621418,-0.5012401,-2.670902,7.6349087,0.49012914,-0.4708677,-2.1998246,19.56375,0.5053549,-48.327744
419291542121418,-0.5012401,-2.670902,7.6349087,0.47083887,-0.4677471,-2.1936314,19.56375,0.5053549,-48.327744
419291542121418,-0.75843257,-2.7041807,7.433873,0.47083887,-0.4677471,-2.1936314,19.56375,0.5053549,-48.327744
419291544621418,-0.75843257,-2.7041807,7.433873,0.44415817,-0.46422577,-2.185572,19.56375,0.5053549,-48.327744
419291546749647,-0.75843257,-2.7041807,7.433873,0.44415817,-0.46422577,-2.185572,19.625189,1.8186235,-48.842983
419291544621418,-0.9713127,-2.7285068,7.238453,0.44415817,-0.46422577,-2.185572,19.625189,1.8186235,-48.842983
419291547121418,-0.9713127,-2.7285068,7.238453,0.4102649,-0.46077234,-2.1723819,19.625189,1.8186235,-48.842983
419291547121418,-1.1205033,-2.7161,7.089422,0.4102649,-0.46077234,-2.1723819,19.625189,1.8186235,-48.842983
419291549621418,-1.1205033,-2.7161,7.089422,0.36860174,-0.4547792,-2.1598094,19.625189,1.8186235,-48.842983
419291552121418,-1.1205033,-2.7161,7.089422,0.32196963,-0.44306064,-2.1485248,19.625189,1.8186235,-48.842983
419291549621418,-1.2959989,-2.6988192,6.9661155,0.32196963,-0.44306064,-2.1485248,19.625189,1.8186235,-48.842983
419291552121418,-1.5028389,-2.6803396,6.861396,0.32196963,-0.44306064,-2.1485248,19.625189,1.8186235,-48.842983
419291554621418,-1.5028389,-2.6803396,6.861396,0.26639286,-0.4294032,-2.1365435,19.625189,1.8186235,-48.842983
419291556749647,-1.5028389,-2.6803396,6.861396,0.26639286,-0.4294032,-2.1365435,18.921652,0.9755335,-47.451622
419291554621418,-1.8183306,-2.6661582,6.8248076,0.26639286,-0.4294032,-2.1365435,18.921652,0.9755335,-47.451622
419291557121418,-1.8183306,-2.6661582,6.8248076,0.20605867,-0.41431963,-2.1210544,18.921652,0.9755335,-47.451622
419291557121418,-2.1844566,-2.6626022,6.854037,0.20605867,-0.41431963,-2.1210544,18.921652,0.9755335,-47.451622
419291559621418,-2.1844566,-2.6626022,6.854037,0.1420841,-0.4016508,-2.104149,18.921652,0.9755335,-47.451622
419291559621418,-2.5904193,-2.6645105,6.937463,0.1420841,-0.4016508,-2.104149,18.921652,0.9755335,-47.451622
419291562121418,-2.5904193,-2.6645105,6.937463,0.07564787,-0.39162183,-2.083443,18.921652,0.9755335,-47.451622
419291562121418,-2.9407496,-2.705619,7.0918446,0.07564787,-0.39162183,-2.083443,18.921652,0.9755335,-47.451622
419291564621418,-2.9407496,-2.705619,7.0918446,0.01093659,-0.3850028,-2.0578606,18.921652,0.9755335,-47.451622
419291566749647,-2.9407496,-2.705619,7.0918446,0.01093659,-0.3850028,-2.0578606,18.762295,1.0812674,-48.372147
419291564621418,-3.2659261,-2.7157073,7.314569,0.01093659,-0.3850028,-2.0578606,18.762295,1.0812674,-48.372147
419291567121418,-3.2659261,-2.7157073,7.314569,-0.052377343,-0.38185418,-2.0287855,18.762295,1.0812674,-48.372147
419291567121418,-3.506738,-2.7051234,7.5396132,-0.052377343,-0.38185418,-2.0287855,18.762295,1.0812674,-48.372147
419291569621418,-3.506738,-2.7051234,7.5396132,-0.111759745,-0.38239264,-2.0024834,18.762295,1.0812674,-48.372147
419291569621418,-3.7360876,-2.6757329,7.8754177,-0.111759745,-0.38239264,-2.0024834,18.762295,1.0812674,-48.372147
419291572121418,-3.7360876,-2.6757329,7.8754177,-0.16512097,-0.37888056,-1.9751782,18.762295,1.0812674,-48.372147
419291572121418,-3.9809453,-2.6458275,8.224854,-0.16512097,-0.37888056,-1.9751782,18.762295,1.0812674,-48.372147
419291574621418,-3.9809453,-2.6458275,8.224854,-0.21549042,-0.37457657,-1.9460208,18.762295,1.0812674,-48.372147
419291576749647,-3.9809453,-2.6458275,8.224854,-0.21549042,-0.37457657,-1.9460208,17.771154,1.1023431,-49.45931
419291574621418,-4.276554,-2.6085296,8.558513,-0.21549042,-0.37457657,-1.9460208,17.771154,1.1023431,-49.45931
419291577121418,-4.276554,-2.6085296,8.558513,-0.26014432,-0.3694809,-1.9159535,17.771154,1.1023431,-49.45931
419291577121418,-4.5711966,-2.5680797,8.909257,-0.26014432,-0.3694809,-1.9159535,17.771154,1.1023431,-49.45931
419291579621418,-4.5711966,-2.5680797,8.909257,-0.2975652,-0.3623634,-1.8888417,17.771154,1.1023431,-49.45931
419291579621418,-4.8096294,-2.532886,9.211806,-0.2975652,-0.3623634,-1.8888417,17.771154,1.1023431,-49.45931
419291582121418,-4.8096294,-2.532886,9.211806,-0.32876265,-0.35700035,-1.8603574,17.771154,1.1023431,-49.45931
419291582121418,-5.0973816,-2.5678315,9.559609,-0.32876265,-0.35700035,-1.8603574,17.771154,1.1023431,-49.45931
419291584621418,-5.0973816,-2.5678315,9.559609,-0.35138562,-0.36115545,-1.8312442,17.771154,1.1023431,-49.45931
419291586749647,-5.0973816,-2.5678315,9.559609,-0.35138562,-0.36115545,-1.8312442,18.250626,0.77096796,-48.065197
419291584621418,-5.2860837,-2.5935938,9.890028,-0.35138562,-0.36115545,-1.8312442,18.250626,0.77096796,-48.065197
419291587121418,-5.2860837,-2.5935938,9.890028,-0.37058967,-0.36933124,-1.8027655,18.250626,0.77096796,-48.065197
419291587121418,-5.435616,-2.6364357,10.198002,-0.37058967,-0.36933124,-1.8027655,18.250626,0.77096796,-48.065197
419291589621418,-5.435616,-2.6364357,10.198002,-0.38270077,-0.38487518,-1.7751464,18.250626,0.77096796,-48.065197
419291589621418,-5.576868,-2.635196,10.514173,-0.38270077,-0.38487518,-1.7751464,18.250626,0.77096796,-48.065197
419291592121418,-5.576868,-2.635196,10.514173,-0.39026192,-0.4014094,-1.7513275,18.250626,0.77096796,-48.065197
419291592121418,-5.6497393,-2.6855578,10.809644,-0.39026192,-0.4014094,-1.7513275,18.250626,0.77096796,-48.065197
419291594621418,-5.6497393,-2.6855578,10.809644,-0.39020452,-0.41628397,-1.7315724,18.250626,0.77096796,-48.065197
419291596749647,-5.6497393,-2.6855578,10.809644,-0.39020452,-0.41628397,-1.7315724,15.133026,1.3668203,-49.226215
419291594621418,-5.683772,-2.6752977,11.105182,-0.39020452,-0.41628397,-1.7315724,15.133026,1.3668203,-49.226215
419291597121418,-5.683772,-2.6752977,11.105182,-0.3830142,-0.43109435,-1.7177895,15.133026,1.3668203,-49.226215
419291597121418,-5.7516847,-2.6097798,11.381208,-0.3830142,-0.43109435,-1.7177895,15.133026,1.3668203,-49.226215
419291599621418,-5.8078747,-2.54885,11.606272,-0.3830142,-0.43109435,-1.7177895,15.133026,1.3668203,-49.226215
419291599621418,-5.8078747,-2.54885,11.606272,-0.37350693,-0.43956375,-1.7098694,15.133026,1.3668203,-49.226215
419291602121418,-5.8078747,-2.54885,11.606272,-0.35732934,-0.44882005,-1.7056758,15.133026,1.3668203,-49.226215
419291604621418,-5.8078747,-2.54885,11.606272,-0.3346545,-0.45807058,-1.7061706,15.133026,1.3668203,-49.226215
419291602121418,-5.8289785,-2.4836073,11.83059,-0.3346545,-0.45807058,-1.7061706,15.133026,1.3668203,-49.226215
419291606749647,-5.8289785,-2.4836073,11.83059,-0.3346545,-0.45807058,-1.7061706,16.388113,3.471151,-48.231182
419291604621418,-5.9143777,-2.4401116,12.031585,-0.3346545,-0.45807058,-1.7061706,16.388113,3.471151,-48.231182
419291607121418,-5.9143777,-2.4401116,12.031585,-0.3088434,-0.46344477,-1.7098426,16.388113,3.471151,-48.231182
419291607121418,-5.983542,-2.410831,12.194965,-0.3088434,-0.46344477,-1.7098426,16.388113,3.471151,-48.231182
419291609621418,-6.0881724,-2.374129,12.335517,-0.3088434,-0.46344477,-1.7098426,16.388113,3.471151,-48.231182
419291609621418,-6.0881724,-2.374129,12.335517,-0.28156045,-0.46809024,-1.7161604,16.388113,3.471151,-48.231182
419291612121418,-6.0881724,-2.374129,12.335517,-0.24741228,-0.47213745,-1.7237605,16.388113,3.471151,-48.231182
419291612121418,-6.184919,-2.3301675,12.411321,-0.24741228,-0.47213745,-1.7237605,16.388113,3.471151,-48.231182
419291614621418,-6.184919,-2.3301675,12.411321,-0.21139364,-0.47469002,-1.7343534,16.388113,3.471151,-48.231182
419291616749647,-6.184919,-2.3301675,12.411321,-0.21139364,-0.47469002,-1.7343534,16.846153,2.5826592,-49.700184
419291614621418,-6.296286,-2.2777212,12.441006,-0.21139364,-0.47469002,-1.7343534,16.846153,2.5826592,-49.700184
419291617121418,-6.296286,-2.2777212,12.441006,-0.17422827,-0.4796551,-1.7488619,16.846153,2.5826592,-49.700184
419291617121418,-6.4269314,-2.2301302,12.42012,-0.17422827,-0.4796551,-1.7488619,16.846153,2.5826592,-49.700184
419291619621418,-6.599753,-2.1580405,12.3489065,-0.17422827,-0.4796551,-1.7488619,16.846153,2.5826592,-49.700184
419291619621418,-6.599753,-2.1580405,12.3489065,-0.13865693,-0.49053997,-1.7625653,16.846153,2.5826592,-49.700184
419291622121418,-6.599753,-2.1580405,12.3489065,-0.10196734,-0.50644064,-1.7806181,16.846153,2.5826592,-49.700184
419291622121418,-6.797103,-2.10239,12.298822,-0.10196734,-0.50644064,-1.7806181,16.846153,2.5826592,-49.700184
419291624621418,-6.797103,-2.10239,12.298822,-0.069467396,-0.5301974,-1.7983758,16.846153,2.5826592,-49.700184
419291626749647,-6.797103,-2.10239,12.298822,-0.069467396,-0.5301974,-1.7983758,15.864405,2.895678,-48.06429
419291624621418,-7.087997,-2.0695915,12.201469,-0.069467396,-0.5301974,-1.7983758,15.864405,2.895678,-48.06429
419291627121418,-7.087997,-2.0695915,12.201469,-0.036573865,-0.55593705,-1.8129451,15.864405,2.895678,-48.06429
419291627121418,-7.377411,-1.9987935,12.094123,-0.036573865,-0.55593705,-1.8129451,15.864405,2.895678,-48.06429
419291629621418,-7.377411,-1.9987935,12.094123,-0.008745711,-0.5883062,-1.8251402,15.864405,2.895678,-48.06429
419291629621418,-7.7671633,-1.9824966,11.976377,-0.008745711,-0.5883062,-1.8251402,15.864405,2.895678,-48.06429
419291632121418,-7.7671633,-1.9824966,11.976377,0.012856977,-0.6213314,-1.8320631,15.864405,2.895678,-48.06429
419291632121418,-8.184666,-1.8988847,11.880734,0.012856977,-0.6213314,-1.8320631,15.864405,2.895678,-48.06429
419291634621418,-8.184666,-1.8988847,11.880734,0.033456743,-0.6521885,-1.8313423,15.864405,2.895678,-48.06429
419291636749647,-8.184666,-1.8988847,11.880734,0.033456743,-0.6521885,-1.8313423,15.601191,4.2870417,-50.56658
419291637121418,-8.184666,-1.8988847,11.880734,0.049631715,-0.685822,-1.8214871,15.601191,4.2870417,-50.56658
419291634621418,-8.664478,-1.8236127,11.817599,0.049631715,-0.685822,-1.8214871,15.601191,4.2870417,-50.56658
419291637121418,-9.189081,-1.7540398,11.777391,0.049631715,-0.685822,-1.8214871,15.601191,4.2870417,-50.56658
419291639621418,-9.189081,-1.7540398,11.777391,0.06708943,-0.7150822,-1.7995557,15.601191,4.2870417,-50.56658
419291639621418,-9.706679,-1.6728117,11.789721,0.06708943,-0.7150822,-1.7995557,15.601191,4.2870417,-50.56658
419291642121418,-9.706679,-1.6728117,11.789721,0.08001821,-0.73931414,-1.7633334,15.601191,4.2870417,-50.56658
419291642121418,-10.165391,-1.6163208,11.850937,0.08001821,-0.73931414,-1.7633334,15.601191,4.2870417,-50.56658
419291644621418,-10.165391,-1.6163208,11.850937,0.0954082,-0.75913346,-1.7141726,15.601191,4.2870417,-50.56658
419291646749647,-10.165391,-1.6163208,11.850937,0.0954082,-0.75913346,-1.7141726,15.601191,4.2870417,-50.56658
419291644621418,-10.593059,-1.5374906,11.84378,0.0954082,-0.75913346,-1.7141726,15.601191,4.2870417,-50.56658
419291647121418,-10.593059,-1.5374906,11.84378,0.11405027,-0.772869,-1.6542892,15.601191,4.2870417,-50.56658
419291649621418,-10.593059,-1.5374906,11.84378,0.13326801,-0.78495395,-1.5876355,15.601191,4.2870417,-50.56658
419291647121418,-10.895622,-1.4133736,11.77609,0.13326801,-0.78495395,-1.5876355,15.601191,4.2870417,-50.56658
419291649621418,-11.14741,-1.3209934,11.69714,0.13326801,-0.78495395,-1.5876355,15.601191,4.2870417,-50.56658
419291652121418,-11.14741,-1.3209934,11.69714,0.15504906,-0.7967808,-1.5173975,15.601191,4.2870417,-50.56658
419291652121418,-11.3226795,-1.2574171,11.564725,0.15504906,-0.7967808,-1.5173975,15.601191,4.2870417,-50.56658
419291654621418,-11.3226795,-1.2574171,11.564725,0.17197454,-0.80758286,-1.4438527,15.601191,4.2870417,-50.56658
419291656749647,-11.3226795,-1.2574171,11.564725,0.17197454,-0.80758286,-1.4438527,11.736282,3.1282313,-49.23106
419291654621418,-11.427464,-1.2412603,11.421021,0.17197454,-0.80758286,-1.4438527,11.736282,3.1282313,-49.23106
419291657121418,-11.427464,-1.2412603,11.421021,0.1862623,-0.8178924,-1.3701259,11.736282,3.1282313,-49.23106
419291657121418,-11.3963375,-1.1356485,11.295675,0.1862623,-0.8178924,-1.3701259,11.736282,3.1282313,-49.23106
419291659621418,-11.3963375,-1.1356485,11.295675,0.20085119,-0.8260299,-1.2966756,11.736282,3.1282313,-49.23106
419291659621418,-10.949926,-0.5199209,11.199342,0.20085119,-0.8260299,-1.2966756,11.736282,3.1282313,-49.23106
419291662121418,-10.949926,-0.5199209,11.199342,0.20863688,-0.8291835,-1.2315644,11.736282,3.1282313,-49.23106
419291662121418,-10.866504,-0.6890915,10.898586,0.20863688,-0.8291835,-1.2315644,11.736282,3.1282313,-49.23106
419291664621418,-10.866504,-0.6890915,10.898586,0.21239364,-0.82385975,-1.1811595,11.736282,3.1282313,-49.23106
419291666749647,-10.866504,-0.6890915,10.898586,0.21239364,-0.82385975,-1.1811595,11.435082,3.742971,-50.33023
419291664621418,-11.11187,-1.0586053,10.930145,0.21239364,-0.82385975,-1.1811595,11.435082,3.742971,-50.33023
419291667121418,-11.11187,-1.0586053,10.930145,0.21464925,-0.8106824,-1.1281819,11.435082,3.742971,-50.33023
419291667121418,-11.347703,-1.2349491,10.867985,0.21464925,-0.8106824,-1.1281819,11.435082,3.742971,-50.33023
419291669621418,-11.347703,-1.2349491,10.867985,0.21403848,-0.7878021,-1.0659854,11.435082,3.742971,-50.33023
419291669621418,-11.340967,-1.3207731,10.635244,0.21403848,-0.7878021,-1.0659854,11.435082,3.742971,-50.33023
419291672121418,-11.340967,-1.3207731,10.635244,0.21230009,-0.76230973,-0.99996156,11.435082,3.742971,-50.33023
419291672121418,-11.229001,-1.208628,10.426668,0.21230009,-0.76230973,-0.99996156,11.435082,3.742971,-50.33023
419291674621418,-11.229001,-1.208628,10.426668,0.20680511,-0.7393073,-0.9370881,11.435082,3.742971,-50.33023
419291676749647,-11.229001,-1.208628,10.426668,0.20680511,-0.7393073,-0.9370881,12.500015,5.2971888,-49.922134
419291674621418,-10.952375,-1.016579,10.280871,0.20680511,-0.7393073,-0.9370881,12.500015,5.2971888,-49.922134
419291677121418,-10.952375,-1.016579,10.280871,0.19641773,-0.7177879,-0.88181525,12.500015,5.2971888,-49.922134
419291677121418,-10.703287,-0.7893602,10.151862,0.19641773,-0.7177879,-0.88181525,12.500015,5.2971888,-49.922134
419291679621418,-10.703287,-0.7893602,10.151862,0.18031022,-0.6943856,-0.8365354,12.500015,5.2971888,-49.922134
419291679621418,-10.46769,-0.5914921,10.071306,0.18031022,-0.6943856,-0.8365354,12.500015,5.2971888,-49.922134
419291682121418,-10.46769,-0.5914921,10.071306,0.16164604,-0.6692472,-0.80253,12.500015,5.2971888,-49.922134
419291682121418,-10.323445,-0.51740986,10.026558,0.16164604,-0.6692472,-0.80253,12.500015,5.2971888,-49.922134
419291684621418,-10.323445,-0.51740986,10.026558,0.14169942,-0.6432451,-0.7752337,12.500015,5.2971888,-49.922134
419291686749647,-10.323445,-0.51740986,10.026558,0.14169942,-0.6432451,-0.7752337,9.931338,3.4631948,-50.1988
419291684621418,-10.226865,-0.41486827,9.931967,0.14169942,-0.6432451,-0.7752337,9.931338,3.4631948,-50.1988
419291687121418,-10.226865,-0.41486827,9.931967,0.12114356,-0.61739624,-0.75269943,9.931338,3.4631948,-50.1988
419291687121418,-10.219849,-0.38446444,9.832428,0.12114356,-0.61739624,-0.75269943,9.931338,3.4631948,-50.1988
419291689621418,-10.219849,-0.38446444,9.832428,0.09906901,-0.59677106,-0.73076344,9.931338,3.4631948,-50.1988
419291689621418,-10.186792,-0.4068378,9.707441,0.09906901,-0.59677106,-0.73076344,9.931338,3.4631948,-50.1988
419291692121418,-10.186792,-0.4068378,9.707441,0.0765967,-0.57684416,-0.70775527,9.931338,3.4631948,-50.1988
419291692121418,-10.216758,-0.4342031,9.586283,0.0765967,-0.57684416,-0.70775527,9.931338,3.4631948,-50.1988
419291694621418,-10.216758,-0.4342031,9.586283,0.048287325,-0.56293076,-0.6855035,9.931338,3.4631948,-50.1988
419291696749647,-10.216758,-0.4342031,9.586283,0.048287325,-0.56293076,-0.6855035,9.394656,2.631997,-49.26032
419291694621418,-10.249894,-0.4618899,9.506357,0.048287325,-0.56293076,-0.6855035,9.394656,2.631997,-49.26032
419291697121418,-10.249894,-0.4618899,9.506357,0.017890071,-0.55232656,-0.6619866,9.394656,2.631997,-49.26032
419291697121418,-10.257081,-0.5047795,9.424786,0.017890071,-0.55232656,-0.6619866,9.394656,2.631997,-49.26032
419291699621418,-10.257081,-0.5047795,9.424786,-0.015247863,-0.5435234,-0.6385776,9.394656,2.631997,-49.26032
419291699621418,-10.224174,-0.52002895,9.390197,-0.015247863,-0.5435234,-0.6385776,9.394656,2.631997,-49.26032
419291702121418,-10.224174,-0.52002895,9.390197,-0.04857856,-0.53991854,-0.61726385,9.394656,2.631997,-49.26032
419291702121418,-10.161113,-0.5549329,9.3768015,-0.04857856,-0.53991854,-0.61726385,9.394656,2.631997,-49.26032
419291704621418,-10.161113,-0.5549329,9.3768015,-0.08419316,-0.5414706,-0.5978641,9.394656,2.631997,-49.26032
419291706749647,-10.161113,-0.5549329,9.3768015,-0.08419316,-0.5414706,-0.5978641,9.7419615,2.9052086,-51.545433
419291704621418,-10.091518,-0.53143907,9.424094,-0.08419316,-0.5414706,-0.5978641,9.7419615,2.9052086,-51.545433
419291707121418,-10.091518,-0.53143907,9.424094,-0.11901783,-0.54359955,-0.5773616,9.7419615,2.9052086,-51.545433
419291707121418,-10.05109,-0.53136873,9.504123,-0.11901783,-0.54359955,-0.5773616,9.7419615,2.9052086,-51.545433
419291709621418,-10.05109,-0.53136873,9.504123,-0.15392701,-0.542723,-0.55527216,9.7419615,2.9052086,-51.545433
419291709621418,-10.0294285,-0.48884067,9.624661,-0.15392701,-0.542723,-0.55527216,9.7419615,2.9052086,-51.545433
419291712121418,-10.0294285,-0.48884067,9.624661,-0.1854728,-0.54231894,-0.5332285,9.7419615,2.9052086,-51.545433
419291712121418,-10.045157,-0.5173694,9.788225,-0.1854728,-0.54231894,-0.5332285,9.7419615,2.9052086,-51.545433
419291714621418,-10.045157,-0.5173694,9.788225,-0.21348548,-0.5381746,-0.5100231,9.7419615,2.9052086,-51.545433
419291716749647,-10.045157,-0.5173694,9.788225,-0.21348548,-0.5381746,-0.5100231,11.243061,3.2117546,-49.093876
419291714621418,-10.040343,-0.5376153,9.945585,-0.21348548,-0.5381746,-0.5100231,11.243061,3.2117546,-49.093876
419291717121418,-10.040343,-0.5376153,9.945585,-0.23725183,-0.5311601,-0.4856289,11.243061,3.2117546,-49.093876
419291717121418,-10.072698,-0.58419794,10.17218,-0.23725183,-0.5311601,-0.4856289,11.243061,3.2117546,-49.093876
419291719621418,-10.072698,-0.58419794,10.17218,-0.25259316,-0.52121365,-0.45934108,11.243061,3.2117546,-49.093876
419291719621418,-10.035695,-0.65355355,10.402311,-0.25259316,-0.52121365,-0.45934108,11.243061,3.2117546,-49.093876
419291722121418,-9.957699,-0.69420254,10.63489,-0.25259316,-0.52121365,-0.45934108,11.243061,3.2117546,-49.093876
419291722121418,-9.957699,-0.69420254,10.63489,-0.26505613,-0.5066581,-0.43116888,11.243061,3.2117546,-49.093876
419291724621418,-9.957699,-0.69420254,10.63489,-0.26744014,-0.48680514,-0.40347123,11.243061,3.2117546,-49.093876
419291726749647,-9.957699,-0.69420254,10.63489,-0.26744014,-0.48680514,-0.40347123,8.007853,4.845385,-50.305367
419291724621418,-9.890775,-0.7324687,10.8393955,-0.26744014,-0.48680514,-0.40347123,8.007853,4.845385,-50.305367
419291727121418,-9.890775,-0.7324687,10.8393955,-0.2647764,-0.46406323,-0.37713882,8.007853,4.845385,-50.305367
419291727121418,-9.744552,-0.74613273,11.050843,-0.2647764,-0.46406323,-0.37713882,8.007853,4.845385,-50.305367
419291729621418,-9.744552,-0.74613273,11.050843,-0.2540591,-0.44060516,-0.35277072,8.007853,4.845385,-50.305367
419291729621418,-9.607599,-0.76206076,11.179062,-0.2540591,-0.44060516,-0.35277072,8.007853,4.845385,-50.305367
419291732121418,-9.481415,-0.73423535,11.307276,-0.2540591,-0.44060516,-0.35277072,8.007853,4.845385,-50.305367
419291732121418,-9.481415,-0.73423535,11.307276,-0.23947284,-0.41625834,-0.3334122,8.007853,4.845385,-50.305367
419291734621418,-9.481415,-0.73423535,11.307276,-0.2190006,-0.39002228,-0.3211867,8.007853,4.845385,-50.305367
419291736749647,-9.481415,-0.73423535,11.307276,-0.2190006,-0.39002228,-0.3211867,9.363858,1.9761496,-48.926727
419291734621418,-9.374851,-0.66402507,11.384238,-0.2190006,-0.39002228,-0.3211867,9.363858,1.9761496,-48.926727
419291737121418,-9.374851,-0.66402507,11.384238,-0.19562982,-0.363724,-0.30957457,9.363858,1.9761496,-48.926727
419291737121418,-9.267039,-0.66135263,11.440296,-0.19562982,-0.363724,-0.30957457,9.363858,1.9761496,-48.926727
419291739621418,-9.267039,-0.66135263,11.440296,-0.17112306,-0.33509612,-0.30272982,9.363858,1.9761496,-48.926727
419291739621418,-9.233668,-0.61601144,11.515749,-0.17112306,-0.33509612,-0.30272982,9.363858,1.9761496,-48.926727
419291742121418,-9.188687,-0.5856052,11.567679,-0.17112306,-0.33509612,-0.30272982,9.363858,1.9761496,-48.926727
419291742121418,-9.188687,-0.5856052,11.567679,-0.14822952,-0.30543458,-0.29690167,9.363858,1.9761496,-48.926727
419291744621418,-9.188687,-0.5856052,11.567679,-0.12320818,-0.27366132,-0.29147398,9.363858,1.9761496,-48.926727
419291746749647,-9.188687,-0.5856052,11.567679,-0.12320818,-0.27366132,-0.29147398,10.977979,4.622015,-49.772877
419291744621418,-9.18663,-0.55459696,11.66485,-0.12320818,-0.27366132,-0.29147398,10.977979,4.622015,-49.772877
419291747121418,-9.18663,-0.55459696,11.66485,-0.09657275,-0.23817773,-0.28629404,10.977979,4.622015,-49.772877
419291747121418,-9.238476,-0.5368628,11.762585,-0.09657275,-0.23817773,-0.28629404,10.977979,4.622015,-49.772877
419291749621418,-9.238476,-0.5368628,11.762585,-0.0695743,-0.20343055,-0.28037053,10.977979,4.622015,-49.772877
419291749621418,-9.325925,-0.53729886,11.851628,-0.0695743,-0.20343055,-0.28037053,10.977979,4.622015,-49.772877
419291752121418,-9.325925,-0.53729886,11.851628,-0.040715657,-0.17239104,-0.27048615,10.977979,4.622015,-49.772877
419291752121418,-9.425043,-0.4756053,11.9189415,-0.040715657,-0.17239104,-0.27048615,10.977979,4.622015,-49.772877
419291754621418,-9.425043,-0.4756053,11.9189415,-0.008135317,-0.14295769,-0.25781554,10.977979,4.622015,-49.772877
419291756749647,-9.425043,-0.4756053,11.9189415,-0.008135317,-0.14295769,-0.25781554,9.599809,3.417364,-51.420204
419291754621418,-9.529206,-0.49938846,12.022212,-0.008135317,-0.14295769,-0.25781554,9.599809,3.417364,-51.420204
419291757121418,-9.529206,-0.49938846,12.022212,0.029820723,-0.11891776,-0.2425732,9.599809,3.417364,-51.420204
419291757121418,-9.579213,-0.45550933,12.084286,0.029820723,-0.11891776,-0.2425732,9.599809,3.417364,-51.420204
419291759621418,-9.579213,-0.45550933,12.084286,0.07066798,-0.09834579,-0.22437555,9.599809,3.417364,-51.420204
419291759621418,-9.654667,-0.4568975,12.129392,0.07066798,-0.09834579,-0.22437555,9.599809,3.417364,-51.420204
419291762121418,-9.654667,-0.4568975,12.129392,0.11589107,-0.082308926,-0.20289089,9.599809,3.417364,-51.420204
419291762121418,-9.701528,-0.46062163,12.131769,0.11589107,-0.082308926,-0.20289089,9.599809,3.417364,-51.420204
419291764621418,-9.701528,-0.46062163,12.131769,0.16173154,-0.07088199,-0.17882082,9.599809,3.417364,-51.420204
419291766749647,-9.701528,-0.46062163,12.131769,0.16173154,-0.07088199,-0.17882082,9.3951235,2.627273,-49.71614
419291764621418,-9.7297735,-0.4348012,12.062029,0.16173154,-0.07088199,-0.17882082,9.3951235,2.627273,-49.71614
419291767121418,-9.7297735,-0.4348012,12.062029,0.21087046,-0.060311012,-0.15286964,9.3951235,2.627273,-49.71614
419291767121418,-9.699104,-0.44264555,11.969261,0.21087046,-0.060311012,-0.15286964,9.3951235,2.627273,-49.71614
419291769621418,-9.699104,-0.44264555,11.969261,0.26038164,-0.052126005,-0.12527251,9.3951235,2.627273,-49.71614
419291769621418,-9.6683,-0.43430468,11.852344,0.26038164,-0.052126005,-0.12527251,9.3951235,2.627273,-49.71614
419291772121418,-9.6683,-0.43430468,11.852344,0.31068528,-0.04783354,-0.09688161,9.3951235,2.627273,-49.71614
419291772121418,-9.641789,-0.4810116,11.67025,0.31068528,-0.04783354,-0.09688161,9.3951235,2.627273,-49.71614
419291774621418,-9.641789,-0.4810116,11.67025,0.35927156,-0.04524777,-0.06863585,9.3951235,2.627273,-49.71614
419291776749647,-9.641789,-0.4810116,11.67025,0.35927156,-0.04524777,-0.06863585,8.796332,4.013747,-49.489372
419291774621418,-9.572718,-0.48622876,11.419063,0.35927156,-0.04524777,-0.06863585,8.796332,4.013747,-49.489372
419291777121418,-9.572718,-0.48622876,11.419063,0.40417174,-0.042562068,-0.041624695,8.796332,4.013747,-49.489372
419291777121418,-9.483732,-0.530406,11.173586,0.40417174,-0.042562068,-0.041624695,8.796332,4.013747,-49.489372
419291779621418,-9.483732,-0.530406,11.173586,0.44572642,-0.038943503,-0.012671304,8.796332,4.013747,-49.489372
419291779621418,-9.384212,-0.5721019,10.903693,0.44572642,-0.038943503,-0.012671304,8.796332,4.013747,-49.489372
419291782121418,-9.384212,-0.5721019,10.903693,0.48190013,-0.035134386,0.014709958,8.796332,4.013747,-49.489372
419291782121418,-9.316296,-0.6259917,10.626206,0.48190013,-0.035134386,0.014709958,8.796332,4.013747,-49.489372
419291784621418,-9.316296,-0.6259917,10.626206,0.5069654,-0.032131337,0.04185225,8.796332,4.013747,-49.489372
419291786749647,-9.316296,-0.6259917,10.626206,0.5069654,-0.032131337,0.04185225,10.327313,1.2677331,-50.544792
419291784621418,-9.198967,-0.6582759,10.303568,0.5069654,-0.032131337,0.04185225,10.327313,1.2677331,-50.544792
419291787121418,-9.198967,-0.6582759,10.303568,0.523759,-0.027712818,0.06924479,10.327313,1.2677331,-50.544792
419291787121418,-9.115008,-0.67876095,9.976202,0.523759,-0.027712818,0.06924479,10.327313,1.2677331,-50.544792
419291789621418,-9.115008,-0.67876095,9.976202,0.53330827,-0.022686165,0.096721135,10.327313,1.2677331,-50.544792
419291789621418,-9.005263,-0.70629996,9.711806,0.53330827,-0.022686165,0.096721135,10.327313,1.2677331,-50.544792
419291792121418,-9.005263,-0.70629996,9.711806,0.5380779,-0.017204829,0.12291882,10.327313,1.2677331,-50.544792
419291792121418,-8.904879,-0.73494273,9.455917,0.5380779,-0.017204829,0.12291882,10.327313,1.2677331,-50.544792
419291794621418,-8.904879,-0.73494273,9.455917,0.5318567,-0.008016329,0.15210566,10.327313,1.2677331,-50.544792
419291796749647,-8.904879,-0.73494273,9.455917,0.5318567,-0.008016329,0.15210566,10.358111,1.9235806,-50.878387
419291794621418,-8.811095,-0.71746564,9.209816,0.5318567,-0.008016329,0.15210566,10.358111,1.9235806,-50.878387
419291797121418,-8.811095,-0.71746564,9.209816,0.52047586,0.004275663,0.18348075,10.358111,1.9235806,-50.878387
419291797121418,-8.6975155,-0.7352156,9.014944,0.52047586,0.004275663,0.18348075,10.358111,1.9235806,-50.878387
419291799621418,-8.6975155,-0.7352156,9.014944,0.5032151,0.019854805,0.21360937,10.358111,1.9235806,-50.878387
419291799621418,-8.566117,-0.74414974,8.856347,0.5032151,0.019854805,0.21360937,10.358111,1.9235806,-50.878387
419291802121418,-8.566117,-0.74414974,8.856347,0.4791507,0.037345547,0.2448131,10.358111,1.9235806,-50.878387
419291802121418,-8.448449,-0.7492051,8.729171,0.4791507,0.037345547,0.2448131,10.358111,1.9235806,-50.878387
419291804621418,-8.448449,-0.7492051,8.729171,0.4517435,0.06231903,0.27821025,10.358111,1.9235806,-50.878387
419291806749647,-8.448449,-0.7492051,8.729171,0.4517435,0.06231903,0.27821025,8.938174,3.504742,-49.31073
419291804621418,-8.375834,-0.7798914,8.609926,0.4517435,0.06231903,0.27821025,8.938174,3.504742,-49.31073
