time,aX,aY,aZ,wX,wY,wZ,mX,mY,mZ
488017209657703,0.07640268,-0.7233142,9.835751,-3.8285996E-4,-9.621456E-4,-4.3279637E-5,-139.63261,-11.63031,-19.598906
488017223444110,0.07640268,-0.7233142,9.835751,-3.8285996E-4,-9.621456E-4,-4.3279637E-5,-141.49773,-12.621213,-21.266932
488017220867755,0.08837808,-0.7233142,9.842936,-3.8285996E-4,-9.621456E-4,-4.3279637E-5,-141.49773,-12.621213,-21.266932
488017229737755,0.08837808,-0.7233142,9.842936,-3.8285996E-4,6.3587725E-4,-4.3279637E-5,-141.49773,-12.621213,-21.266932
488017243444110,0.08837808,-0.7233142,9.842936,-3.8285996E-4,6.3587725E-4,-4.3279637E-5,-140.10019,-11.032187,-20.701017
488017249818016,0.08837808,-0.7233142,9.842936,-0.0014482073,0.005429944,4.8939406E-4,-140.10019,-11.032187,-20.701017
488017240948016,0.069217436,-0.7185241,9.847726,-0.0014482073,0.005429944,4.8939406E-4,-140.10019,-11.032187,-20.701017
488017263444110,0.069217436,-0.7185241,9.847726,-0.0014482073,0.005429944,4.8939406E-4,-140.44438,-11.336894,-21.454716
488017261028589,0.0620322,-0.7137339,9.833356,-0.0014482073,0.005429944,4.8939406E-4,-140.44438,-11.336894,-21.454716
488017269898589,0.0620322,-0.7137339,9.833356,-0.0014482073,0.0038319211,4.8939406E-4,-140.44438,-11.336894,-21.454716
488017283444110,0.0620322,-0.7137339,9.833356,-0.0014482073,0.0038319211,4.8939406E-4,-142.6695,-12.859882,-20.369917
488017281109526,0.07400759,-0.70415354,9.840541,-0.0014482073,0.0038319211,4.8939406E-4,-142.6695,-12.859882,-20.369917
488017289979526,0.07400759,-0.70415354,9.840541,-0.0014482073,0.0032992475,4.8939406E-4,-142.6695,-12.859882,-20.369917
488017303444110,0.07400759,-0.70415354,9.840541,-0.0014482073,0.0032992475,4.8939406E-4,-140.78949,-11.632151,-21.296768
488017301190880,0.07879776,-0.70654863,9.828565,-0.0014482073,0.0032992475,4.8939406E-4,-140.78949,-11.632151,-21.296768
488017310060880,0.07879776,-0.70654863,9.828565,0.0012151625,-0.005223537,-4.3279637E-5,-140.78949,-11.632151,-21.296768
488017323444110,0.07879776,-0.70654863,9.828565,0.0012151625,-0.005223537,-4.3279637E-5,-140.11082,-11.311534,-22.208542
488017321272651,0.08119284,-0.7137339,9.835751,0.0012151625,-0.005223537,-4.3279637E-5,-140.11082,-11.311534,-22.208542
488017330142651,0.08119284,-0.7137339,9.835751,0.0022805107,-0.0116156265,-0.0011086279,-140.11082,-11.311534,-22.208542
488017343444110,0.08119284,-0.7137339,9.835751,0.0022805107,-0.0116156265,-0.0011086279,-140.83156,-12.561044,-21.86294
488017350224787,0.08119284,-0.7137339,9.835751,0.0017478366,-0.011082951,-5.759542E-4,-140.83156,-12.561044,-21.86294
488017341354787,0.08119284,-0.6993634,9.84533,0.0017478366,-0.011082951,-5.759542E-4,-140.83156,-12.561044,-21.86294
488017363444110,0.08119284,-0.6993634,9.84533,0.0017478366,-0.011082951,-5.759542E-4,-139.31125,-11.868549,-20.340849
488017361437339,0.09077316,-0.70654863,9.840541,0.0017478366,-0.011082951,-5.759542E-4,-139.31125,-11.868549,-20.340849
488017370307339,0.09077316,-0.70654863,9.840541,0.0017478366,-0.00948493,-5.759542E-4,-139.31125,-11.868549,-20.340849
488017383444110,0.09077316,-0.70654863,9.840541,0.0017478366,-0.00948493,-5.759542E-4,-139.31125,-11.868549,-20.340849
488017381520255,0.07879776,-0.7089437,9.823775,0.0017478366,-0.00948493,-5.759542E-4,-139.31125,-11.868549,-20.340849
488017390390255,0.07879776,-0.7089437,9.823775,0.0012151625,-0.007886907,-0.0011086279,-139.31125,-11.868549,-20.340849
488017403444110,0.07879776,-0.7089437,9.823775,0.0012151625,-0.007886907,-0.0011086279,-140.13145,-11.6833105,-19.911604
488017410473380,0.07879776,-0.7089437,9.823775,1.4981464E-4,-0.0025601666,-5.759542E-4,-140.13145,-11.6833105,-19.911604
488017401603380,0.08119284,-0.71133876,9.838145,1.4981464E-4,-0.0025601666,-5.759542E-4,-140.13145,-11.6833105,-19.911604
488017423444110,0.08119284,-0.71133876,9.838145,1.4981464E-4,-0.0025601666,-5.759542E-4,-140.97403,-12.045741,-21.433823
488017421686766,0.08119284,-0.7017585,9.842936,1.4981464E-4,-0.0025601666,-5.759542E-4,-140.97403,-12.045741,-21.433823
488017430556766,0.08119284,-0.7017585,9.842936,-0.0014482073,0.007027966,0.0010220677,-140.97403,-12.045741,-21.433823
488017443444110,0.08119284,-0.7017585,9.842936,-0.0014482073,0.007027966,0.0010220677,-139.99992,-12.474811,-21.544363
488017450640255,0.08119284,-0.7017585,9.842936,-0.0030462302,0.0107566845,0.0015547423,-139.99992,-12.474811,-21.544363
488017441770255,0.06682236,-0.7185241,9.854912,-0.0030462302,0.0107566845,0.0015547423,-139.99992,-12.474811,-21.544363
488017463444110,0.06682236,-0.7185241,9.854912,-0.0030462302,0.0107566845,0.0015547423,-140.1127,-11.292637,-20.385252
488017461853849,0.07640268,-0.71133876,9.840541,-0.0030462302,0.0107566845,0.0015547423,-140.1127,-11.292637,-20.385252
488017470723849,0.07640268,-0.71133876,9.840541,-0.0014482073,0.0032992475,-4.3279637E-5,-140.1127,-11.292637,-20.385252
488017483444110,0.07640268,-0.71133876,9.840541,-0.0014482073,0.0032992475,-4.3279637E-5,-140.79074,-11.619553,-20.081242
488017481937339,0.095563315,-0.7137339,9.83096,-0.0014482073,0.0032992475,-4.3279637E-5,-140.79074,-11.619553,-20.081242
488017490807339,0.095563315,-0.7137339,9.83096,-3.8285996E-4,-0.0014948193,-4.3279637E-5,-140.79074,-11.619553,-20.081242
488017503444110,0.095563315,-0.7137339,9.83096,-3.8285996E-4,-0.0014948193,-4.3279637E-5,-140.72977,-10.301559,-20.14066
488017502020776,0.09077316,-0.70415354,9.847726,-3.8285996E-4,-0.0014948193,-4.3279637E-5,-140.72977,-10.301559,-20.14066
488017510890776,0.09077316,-0.70415354,9.847726,-9.1553363E-4,0.0017012246,-4.3279637E-5,-140.72977,-10.301559,-20.14066
488017523444110,0.09077316,-0.70415354,9.847726,-9.1553363E-4,0.0017012246,-4.3279637E-5,-141.46771,-11.957492,-20.840816
488017522104057,0.083587915,-0.7137339,9.850121,-9.1553363E-4,0.0017012246,-4.3279637E-5,-141.46771,-11.957492,-20.840816
488017530974057,0.083587915,-0.7137339,9.850121,-0.0014482073,0.0059626177,4.8939406E-4,-141.46771,-11.957492,-20.840816
488017543444110,0.083587915,-0.7137339,9.850121,-0.0014482073,0.0059626177,4.8939406E-4,-140.12912,-11.706931,-22.190718
488017551057078,0.083587915,-0.7137339,9.850121,-0.0025135556,0.0075606396,0.0015547423,-140.12912,-11.706931,-22.190718
488017542187078,0.083587915,-0.71133876,9.84533,-0.0025135556,0.0075606396,0.0015547423,-140.12912,-11.706931,-22.190718
488017563444110,0.083587915,-0.71133876,9.84533,-0.0025135556,0.0075606396,0.0015547423,-141.95468,-11.743745,-20.861517
488017571139891,0.083587915,-0.71133876,9.84533,-9.1553363E-4,6.3587725E-4,4.8939406E-4,-141.95468,-11.743745,-20.861517
488017562269891,0.07161252,-0.7017585,9.8597,-9.1553363E-4,6.3587725E-4,4.8939406E-4,-141.95468,-11.743745,-20.861517
488017583444110,0.07161252,-0.7017585,9.8597,-9.1553363E-4,6.3587725E-4,4.8939406E-4,-140.94324,-11.389894,-21.767414
488017582352391,0.083587915,-0.70654863,9.850121,-9.1553363E-4,6.3587725E-4,4.8939406E-4,-140.94324,-11.389894,-21.767414
488017591222391,0.083587915,-0.70654863,9.850121,0.0012151625,-0.0068215597,-5.759542E-4,-140.94324,-11.389894,-21.767414
488017603444110,0.083587915,-0.70654863,9.850121,0.0012151625,-0.0068215597,-5.759542E-4,-140.83264,-12.550021,-20.799353
488017602434630,0.09316824,-0.7017585,9.847726,0.0012151625,-0.0068215597,-5.759542E-4,-140.83264,-12.550021,-20.799353
488017611304630,0.09316824,-0.7017585,9.847726,0.0017478366,-0.0057562105,-0.0011086279,-140.83264,-12.550021,-20.799353
488017623444110,0.09316824,-0.7017585,9.847726,0.0017478366,-0.0057562105,-0.0011086279,-139.51529,-12.664939,-19.244549
488017622516557,0.06682236,-0.7137339,9.862096,0.0017478366,-0.0057562105,-0.0011086279,-139.51529,-12.664939,-19.244549
488017631386557,0.06682236,-0.7137339,9.862096,1.4981464E-4,0.0043645967,-4.3279637E-5,-139.51529,-12.664939,-19.244549
488017643444110,0.06682236,-0.7137339,9.862096,1.4981464E-4,0.0043645967,-4.3279637E-5,-141.043,-9.951994,-21.37989
488017651468224,0.06682236,-0.7137339,9.862096,6.824883E-4,0.0038319211,4.8939406E-4,-141.043,-9.951994,-21.37989
488017642598224,0.057242036,-0.7185241,9.864491,6.824883E-4,0.0038319211,4.8939406E-4,-141.043,-9.951994,-21.37989
488017663444110,0.057242036,-0.7185241,9.864491,6.824883E-4,0.0038319211,4.8939406E-4,-140.76056,-10.957407,-19.807068
488017662679682,0.083587915,-0.70654863,9.864491,6.824883E-4,0.0038319211,4.8939406E-4,-140.76056,-10.957407,-19.807068
488017671549682,0.083587915,-0.70654863,9.864491,0.0022805107,-0.010017604,-5.759542E-4,-140.76056,-10.957407,-19.807068
488017683444110,0.083587915,-0.70654863,9.864491,0.0022805107,-0.010017604,-5.759542E-4,-141.49712,-12.627511,-21.874697
488017682760932,0.09795839,-0.6969683,9.854912,0.0022805107,-0.010017604,-5.759542E-4,-141.49712,-12.627511,-21.874697
488017691630932,0.09795839,-0.6969683,9.854912,0.0033458585,-0.017475042,-0.0011086279,-141.49712,-12.627511,-21.874697
488017703444110,0.09795839,-0.6969683,9.854912,0.0033458585,-0.017475042,-0.0011086279,-138.4485,-11.129619,-20.659744
488017702842026,0.105143644,-0.6993634,9.8597,0.0033458585,-0.017475042,-0.0011086279,-138.4485,-11.129619,-20.659744
488017711712026,0.105143644,-0.6993634,9.8597,1.4981464E-4,-0.0014948193,4.8939406E-4,-138.4485,-11.129619,-20.659744
488017723444110,0.105143644,-0.6993634,9.8597,1.4981464E-4,-0.0014948193,4.8939406E-4,-139.50232,-12.409214,-20.016138
488017722923016,0.083587915,-0.70654863,9.866886,1.4981464E-4,-0.0014948193,4.8939406E-4,-139.50232,-12.409214,-20.016138
488017731793016,0.083587915,-0.70654863,9.866886,-0.0057096006,0.022475515,0.002087415,-139.50232,-12.409214,-20.016138
488017743444110,0.083587915,-0.70654863,9.866886,-0.0057096006,0.022475515,0.002087415,-140.10051,-11.029037,-20.397135
488017743004005,0.05963712,-0.70415354,9.874072,-0.0057096006,0.022475515,0.002087415,-140.10051,-11.029037,-20.397135
488017751874005,0.05963712,-0.70415354,9.874072,-0.008372971,0.031530976,0.0026200905,-140.10051,-11.029037,-20.397135
488017763444110,0.05963712,-0.70415354,9.874072,-0.008372971,0.031530976,0.0026200905,-140.2908,-11.577577,-20.832129
488017771954995,0.05963712,-0.70415354,9.874072,-0.005176926,0.019279469,0.002087415,-140.2908,-11.577577,-20.832129
488017763084995,0.05963712,-0.7089437,9.883652,-0.005176926,0.019279469,0.002087415,-140.2908,-11.577577,-20.832129
488017783444110,0.05963712,-0.7089437,9.883652,-0.005176926,0.019279469,0.002087415,-139.1672,-12.3996,-22.289373
488017783166089,0.06682236,-0.70415354,9.874072,-0.005176926,0.019279469,0.002087415,-139.1672,-12.3996,-22.289373
488017792036089,0.06682236,-0.70415354,9.874072,-0.0030462302,0.005429944,-5.759542E-4,-139.1672,-12.3996,-22.289373
488017803444110,0.06682236,-0.70415354,9.874072,-0.0030462302,0.005429944,-5.759542E-4,-139.34064,-12.538569,-21.374725
488017812117287,0.06682236,-0.70415354,9.874072,-0.0025135556,0.005429944,-4.3279637E-5,-139.34064,-12.538569,-21.374725
488017803247287,0.10035349,-0.6921782,9.84533,-0.0025135556,0.005429944,-4.3279637E-5,-139.34064,-12.538569,-21.374725
488017823444110,0.10035349,-0.6921782,9.84533,-0.0025135556,0.005429944,-4.3279637E-5,-140.0694,-10.37634,-21.034609
488017823328641,0.069217436,-0.70415354,9.862096,-0.0025135556,0.005429944,-4.3279637E-5,-140.0694,-10.37634,-21.034609
488017832198641,0.069217436,-0.70415354,9.862096,-0.009438318,0.035792366,0.0031527642,-140.0694,-10.37634,-21.034609
488017843444110,0.069217436,-0.70415354,9.862096,-0.009438318,0.035792366,0.0031527642,-141.77626,-11.461955,-20.718521
488017852280151,0.069217436,-0.70415354,9.862096,-0.017961103,0.062426068,0.0052834605,-141.77626,-11.461955,-20.718521
488017843410151,0.009340443,-0.6442766,9.876467,-0.017961103,0.062426068,0.0052834605,-141.77626,-11.461955,-20.718521
488017863444110,0.009340443,-0.6442766,9.876467,-0.017961103,0.062426068,0.0052834605,-141.15137,-12.338553,-22.640406
488017863491870,-0.53434265,0.27782923,9.97706,-0.017961103,0.062426068,0.0052834605,-141.15137,-12.338553,-22.640406
488017872361870,-0.53434265,0.27782923,9.97706,-0.014765059,0.043782473,0.023927052,-141.15137,-12.338553,-22.640406
488017883444110,-0.53434265,0.27782923,9.97706,-0.014765059,0.043782473,0.023927052,-141.20238,-9.846259,-22.300415
488017883573797,-0.46249035,0.44308975,9.917183,-0.014765059,0.043782473,0.023927052,-141.20238,-9.846259,-22.300415
488017892443797,-0.46249035,0.44308975,9.917183,-0.009438318,0.011289358,0.11607966,-141.20238,-9.846259,-22.300415
488017903444110,-0.46249035,0.44308975,9.917183,-0.009438318,0.011289358,0.11607966,-141.2013,-9.857282,-23.364002
488017903655932,-0.7858261,0.7209191,9.936343,-0.009438318,0.011289358,0.11607966,-141.2013,-9.857282,-23.364002
488017912525932,-0.7858261,0.7209191,9.936343,-0.011036343,0.0107566845,0.25191155,-141.2013,-9.857282,-23.364002
488017923444110,-0.7858261,0.7209191,9.936343,-0.011036343,0.0107566845,0.25191155,-140.20764,-9.903553,-24.707895
488017923738224,-0.20621678,-0.076642595,9.905208,-0.011036343,0.0107566845,0.25191155,-140.20764,-9.903553,-24.707895
488017932608224,-0.20621678,-0.076642595,9.905208,-0.006774948,-0.018540386,0.4442069,-140.20764,-9.903553,-24.707895
488017943444110,-0.20621678,-0.076642595,9.905208,-0.006774948,-0.018540386,0.4442069,-141.95396,-8.420187,-29.375694
488017943820672,0.356627,0.7736107,10.003406,-0.006774948,-0.018540386,0.4442069,-141.95396,-8.420187,-29.375694
488017952690672,0.356627,0.7736107,10.003406,-0.0025135556,-0.027595848,0.52730405,-141.95396,-8.420187,-29.375694
488017963444110,0.356627,0.7736107,10.003406,-0.0025135556,-0.027595848,0.52730405,-142.8618,-6.726664,-34.490562
488017963903276,0.6512219,2.8022437,10.099209,-0.0025135556,-0.027595848,0.52730405,-142.8618,-6.726664,-34.490562
488017972773276,0.6512219,2.8022437,10.099209,0.0022805107,-0.030259218,0.37549192,-142.8618,-6.726664,-34.490562
488017983444110,0.6512219,2.8022437,10.099209,0.0022805107,-0.030259218,0.37549192,-144.2014,-3.6363454,-39.983486
488017983985985,-0.65409666,1.8346312,10.111185,0.0022805107,-0.030259218,0.37549192,-144.2014,-3.6363454,-39.983486
488017992855985,-0.65409666,1.8346312,10.111185,0.0022805107,-0.010550277,0.16135694,-144.2014,-3.6363454,-39.983486
488018003444110,-0.65409666,1.8346312,10.111185,0.0022805107,-0.010550277,0.16135694,-142.90163,-4.54096,-51.01007
488018004068693,-1.1163472,0.7328944,10.029752,0.0022805107,-0.010550277,0.16135694,-142.90163,-4.54096,-51.01007
488018012938693,-1.1163472,0.7328944,10.029752,0.006541903,0.0017012246,0.3019829,-142.90163,-4.54096,-51.01007
488018023444110,-1.1163472,0.7328944,10.029752,0.006541903,0.0017012246,0.3019829,-142.7235,-11.884947,-64.65302
488018024151453,0.4476401,1.5615922,9.905208,0.006541903,0.0017012246,0.3019829,-142.7235,-11.884947,-64.65302
488018033021453,0.4476401,1.5615922,9.905208,0.010270621,-0.016942367,0.45592573,-142.7235,-11.884947,-64.65302
488018043444110,0.4476401,1.5615922,9.905208,0.010270621,-0.016942367,0.45592573,-123.93718,-35.293556,-59.810898
488018044234214,-0.14154959,0.24908829,9.989036,0.010270621,-0.016942367,0.45592573,-123.93718,-35.293556,-59.810898
488018053104214,-0.14154959,0.24908829,9.989036,0.012933991,-0.00948493,0.2636304,-123.93718,-35.293556,-59.810898
488018063444110,-0.14154959,0.24908829,9.989036,0.012933991,-0.00948493,0.2636304,-115.32929,-38.47297,-44.270912
488018064316870,-0.393033,0.9700073,10.077653,0.012933991,-0.00948493,0.2636304,-115.32929,-38.47297,-44.270912
488018073186870,-0.393033,0.9700073,10.077653,0.017195385,-0.012148302,0.2343333,-115.32929,-38.47297,-44.270912
488018083444110,-0.393033,0.9700073,10.077653,0.017195385,-0.012148302,0.2343333,-110.36464,-38.088467,-29.736477
488018093269474,-0.393033,0.9700073,10.077653,0.012933991,-0.0073542334,0.24924818,-110.36464,-38.088467,-29.736477
488018084399474,-0.2014266,0.22274241,9.938739,0.012933991,-0.0073542334,0.24924818,-110.36464,-38.088467,-29.736477
488018103444110,-0.2014266,0.22274241,9.938739,0.012933991,-0.0073542334,0.24924818,-108.16371,-36.707825,-19.109941
488018113351974,-0.2014266,0.22274241,9.938739,0.012933991,-0.0116156265,0.2630977,-108.16371,-36.707825,-19.109941
488018104481974,0.08119284,-1.530456,9.974665,0.012933991,-0.0116156265,0.2630977,-108.16371,-36.707825,-19.109941
488018123444110,0.08119284,-1.530456,9.974665,0.012933991,-0.0116156265,0.2630977,-107.174225,-36.32515,-4.5119205
488018124564318,0.5075171,-2.1412013,9.8573065,0.012933991,-0.0116156265,0.2630977,-107.174225,-36.32515,-4.5119205
488018133434318,0.5075171,-2.1412013,9.8573065,0.008139925,-0.00948493,0.26203236,-107.174225,-36.32515,-4.5119205
488018143444110,0.5075171,-2.1412013,9.8573065,0.008139925,-0.00948493,0.26203236,-110.6912,-33.30598,3.9355135
488018153516557,0.5075171,-2.1412013,9.8573065,0.012401317,-0.013746325,0.23912735,-110.6912,-33.30598,3.9355135
488018144646557,0.87635946,-2.816614,9.778268,0.012401317,-0.013746325,0.23912735,-110.6912,-33.30598,3.9355135
488018163444110,0.87635946,-2.816614,9.778268,0.012401317,-0.013746325,0.23912735,-106.83485,-32.060562,10.956739
488018173598641,0.87635946,-2.816614,9.778268,0.012401317,-0.008952256,0.18639262,-106.83485,-32.060562,10.956739
488018164728641,1.8104405,-2.4405866,9.605823,0.012401317,-0.008952256,0.18639262,-106.83485,-32.060562,10.956739
488018183444110,1.8104405,-2.4405866,9.605823,0.012401317,-0.008952256,0.18639262,-105.212135,-25.397022,17.678385
488018184810568,0.87635946,-3.0657024,9.718392,0.012401317,-0.008952256,0.18639262,-105.212135,-25.397022,17.678385
488018193680568,0.87635946,-3.0657024,9.718392,0.011335969,-0.0030928403,0.036178555,-105.212135,-25.397022,17.678385
488018203444110,0.87635946,-3.0657024,9.718392,0.011335969,-0.0030928403,0.036178555,-104.087006,-22.516937,18.786768
488018204892391,-0.7738507,-4.6991467,9.658514,0.011335969,-0.0030928403,0.036178555,-104.087006,-22.516937,18.786768
488018213762391,-0.7738507,-4.6991467,9.658514,0.011335969,-0.004690863,0.07133505,-104.087006,-22.516937,18.786768
488018223444110,-0.7738507,-4.6991467,9.658514,0.011335969,-0.004690863,0.07133505,-102.0206,-20.701302,22.093433
488018224974057,-0.079277515,-3.022591,9.672885,0.011335969,-0.004690863,0.07133505,-102.0206,-20.701302,22.093433
488018233844057,-0.079277515,-3.022591,9.672885,0.009737947,-0.016409691,0.18639262,-102.0206,-20.701302,22.093433
488018243444110,-0.079277515,-3.022591,9.672885,0.009737947,-0.016409691,0.18639262,-100.93092,-22.147678,24.008598
488018253925672,-0.079277515,-3.022591,9.672885,0.005476555,-0.010550277,0.1480401,-100.93092,-22.147678,24.008598
488018245055672,0.04047647,-1.559197,9.82617,0.005476555,-0.010550277,0.1480401,-100.93092,-22.147678,24.008598
488018263444110,0.04047647,-1.559197,9.82617,0.005476555,-0.010550277,0.1480401,-100.16338,-23.347944,27.42541
488018274007235,0.04047647,-1.559197,9.82617,0.0038785327,-0.006288886,0.09370735,-100.16338,-23.347944,27.42541
488018265137235,0.835643,-0.107778646,9.909998,0.0038785327,-0.006288886,0.09370735,-100.16338,-23.347944,27.42541
488018283444110,0.835643,-0.107778646,9.909998,0.0038785327,-0.006288886,0.09370735,-99.39584,-24.54821,30.842222
488018285218693,-0.632541,-1.6047035,9.802219,0.0038785327,-0.006288886,0.09370735,-99.39584,-24.54821,30.842222
488018294088693,-0.632541,-1.6047035,9.802219,0.007074577,6.3587725E-4,-0.040526506,-99.39584,-24.54821,30.842222
488018303444110,-0.632541,-1.6047035,9.802219,0.007074577,6.3587725E-4,-0.040526506,-99.191124,-23.564905,35.057915
488018305300203,-0.5415279,-2.5220191,9.766293,0.007074577,6.3587725E-4,-0.040526506,-99.191124,-23.564905,35.057915
488018314170203,-0.5415279,-2.5220191,9.766293,0.0060092285,-0.002027493,-0.0069680447,-99.191124,-23.564905,35.057915
488018323444110,-0.5415279,-2.5220191,9.766293,0.0060092285,-0.002027493,-0.0069680447,-101.29956,-26.116222,37.10483
488018325381714,-0.064907044,-1.2143055,9.850121,0.0060092285,-0.002027493,-0.0069680447,-101.29956,-26.116222,37.10483
488018334251714,-0.064907044,-1.2143055,9.850121,1.4981464E-4,-0.0068215597,0.011675549,-101.29956,-26.116222,37.10483
488018343444110,-0.064907044,-1.2143055,9.850121,1.4981464E-4,-0.0068215597,0.011675549,-99.838806,-26.755896,37.318874
488018354333224,-0.064907044,-1.2143055,9.850121,0.0033458585,-0.020138409,0.0031527642,-99.838806,-26.755896,37.318874
488018345463224,0.06682236,-0.6275111,9.840541,0.0033458585,-0.020138409,0.0031527642,-99.838806,-26.755896,37.318874
488018363444110,0.06682236,-0.6275111,9.840541,0.0033458585,-0.020138409,0.0031527642,-98.47439,-25.799093,40.497494
488018365544839,-0.0026349612,-0.8143273,9.895627,0.0033458585,-0.020138409,0.0031527642,-98.47439,-25.799093,40.497494
488018374414839,-0.0026349612,-0.8143273,9.895627,-0.0030462302,0.015018078,0.002087415,-98.47439,-25.799093,40.497494
488018383444110,-0.0026349612,-0.8143273,9.895627,-0.0030462302,0.015018078,0.002087415,-99.67022,-26.56811,41.114395
488018385626505,-0.064907044,-0.9771927,9.854912,-0.0030462302,0.015018078,0.002087415,-99.67022,-26.56811,41.114395
488018394496505,-0.064907044,-0.9771927,9.854912,-0.0014482073,0.008625988,-0.0037719992,-99.67022,-26.56811,41.114395
488018403444110,-0.064907044,-0.9771927,9.854912,-0.0014482073,0.008625988,-0.0037719992,-100.13858,-25.962112,40.771984
488018414578224,-0.064907044,-0.9771927,9.854912,-0.0030462302,0.0038319211,-0.0043046726,-100.13858,-25.962112,40.771984
488018405708224,-0.00742512,-0.71133876,9.840541,-0.0030462302,0.0038319211,-0.0043046726,-100.13858,-25.962112,40.771984
488018423444110,-0.00742512,-0.71133876,9.840541,-0.0030462302,0.0038319211,-0.0043046726,-100.58224,-24.83207,40.10193
488018425790099,0.01892076,-0.6921782,9.854912,-0.0030462302,0.0038319211,-0.0043046726,-100.58224,-24.83207,40.10193
488018434660099,0.01892076,-0.6921782,9.854912,-9.1553363E-4,0.0011685509,-0.0032393245,-100.58224,-24.83207,40.10193
488018443444110,0.01892076,-0.6921782,9.854912,-9.1553363E-4,0.0011685509,-0.0032393245,-98.86236,-27.015373,40.848972
488018445872078,0.033291243,-0.716129,9.869282,-9.1553363E-4,0.0011685509,-0.0032393245,-98.86236,-27.015373,40.848972
488018454742078,0.033291243,-0.716129,9.869282,-0.0014482073,-4.294701E-4,-0.00270665,-98.86236,-27.015373,40.848972
488018463444110,0.033291243,-0.716129,9.869282,-0.0014482073,-4.294701E-4,-0.00270665,-99.7129,-27.490707,41.155987
488018465954110,0.21292225,-1.199935,9.909998,-0.0014482073,-4.294701E-4,-0.00270665,-99.7129,-27.490707,41.155987
488018474824110,0.21292225,-1.199935,9.909998,0.0022805107,-0.018007714,-0.013892806,-99.7129,-27.490707,41.155987
488018483444110,0.21292225,-1.199935,9.909998,0.0022805107,-0.018007714,-0.013892806,-99.34901,-26.804773,40.52439
488018486036245,0.4428499,-3.2525184,9.5363655,0.0022805107,-0.018007714,-0.013892806,-99.34901,-26.804773,40.52439
488018494906245,0.4428499,-3.2525184,9.5363655,0.009737947,-0.040912703,-0.1124375,-99.34901,-26.804773,40.52439
488018503444110,0.4428499,-3.2525184,9.5363655,0.009737947,-0.040912703,-0.1124375,-100.421486,-24.951977,39.654987
488018514988432,0.4428499,-3.2525184,9.5363655,-0.031810626,0.080004305,-0.0937939,-100.421486,-24.951977,39.654987
488018506118432,0.17699605,-4.9027286,9.529181,-0.031810626,0.080004305,-0.0937939,-100.421486,-24.951977,39.654987
488018523444110,0.17699605,-4.9027286,9.529181,-0.031810626,0.080004305,-0.0937939,-102.282425,-25.985395,33.884556
488018526200724,1.6643407,-5.5326347,9.562712,-0.031810626,0.080004305,-0.0937939,-102.282425,-25.985395,33.884556
488018535070724,1.6643407,-5.5326347,9.562712,-0.02115715,-0.007886907,0.26416305,-102.282425,-25.985395,33.884556
488018543444110,1.6643407,-5.5326347,9.562712,-0.02115715,-0.007886907,0.26416305,-103.7218,-25.175034,24.694118
488018546283068,2.1912582,-4.9626055,9.521995,-0.02115715,-0.007886907,0.26416305,-103.7218,-25.175034,24.694118
488018555153068,2.1912582,-4.9626055,9.521995,-0.027549235,-0.02120376,0.49161485,-103.7218,-25.175034,24.694118
488018563444110,2.1912582,-4.9626055,9.521995,-0.027549235,-0.02120376,0.49161485,-107.55396,-22.36704,15.966349
488018575235412,2.1912582,-4.9626055,9.521995,-0.02541854,-0.043576065,0.73930836,-107.55396,-22.36704,15.966349
488018566365412,3.8318882,-3.7866213,9.701626,-0.02541854,-0.043576065,0.73930836,-107.55396,-22.36704,15.966349
488018583444110,3.8318882,-3.7866213,9.701626,-0.02541854,-0.043576065,0.73930836,-110.65808,-28.955898,5.4078465
488018586447755,6.1575108,-3.2429383,9.725576,-0.02541854,-0.043576065,0.73930836,-110.65808,-28.955898,5.4078465
488018595317755,6.1575108,-3.2429383,9.725576,-0.0200918,-0.06435035,0.978479,-110.65808,-28.955898,5.4078465
488018603444110,6.1575108,-3.2429383,9.725576,-0.0200918,-0.06435035,0.978479,-112.94999,-36.036106,-9.6704235
488018606530151,7.1490736,-1.4609989,9.804615,-0.0200918,-0.06435035,0.978479,-112.94999,-36.036106,-9.6704235
488018615400151,7.1490736,-1.4609989,9.804615,-0.017961103,-0.059023622,0.7808569,-112.94999,-36.036106,-9.6704235
488018623444110,7.1490736,-1.4609989,9.804615,-0.017961103,-0.059023622,0.7808569,-119.03936,-39.69185,-37.608574
488018626612443,5.800644,-0.507757,9.790243,-0.017961103,-0.059023622,0.7808569,-119.03936,-39.69185,-37.608574
488018635482443,5.800644,-0.507757,9.790243,-0.013167038,-0.014278997,0.10702421,-119.03936,-39.69185,-37.608574
488018643444110,5.800644,-0.507757,9.790243,-0.013167038,-0.014278997,0.10702421,-140.162,-34.84108,-50.15993
488018646694735,2.0116272,-0.74726504,9.945924,-0.013167038,-0.014278997,0.10702421,-140.162,-34.84108,-50.15993
488018655564735,2.0116272,-0.74726504,9.945924,-0.012101688,0.035792366,-0.5955728,-140.162,-34.84108,-50.15993
488018663444110,2.0116272,-0.74726504,9.945924,-0.012101688,0.035792366,-0.5955728,-159.26242,-32.412956,-50.089153
488018675646974,2.0116272,-0.74726504,9.945924,-0.014765059,0.05869735,-0.93488616,-159.26242,-32.412956,-50.089153
488018666776974,-1.1738292,-1.4274677,9.898023,-0.014765059,0.05869735,-0.93488616,-159.26242,-32.412956,-50.089153
488018683444110,-1.1738292,-1.4274677,9.898023,-0.014765059,0.05869735,-0.93488616,-154.431,-52.171127,-15.018668
488018686859162,-4.689806,-1.7747543,9.603428,-0.014765059,0.05869735,-0.93488616,-154.431,-52.171127,-15.018668
488018695729162,-4.689806,-1.7747543,9.603428,-0.014232385,0.060828045,-0.8880108,-154.431,-52.171127,-15.018668
488018703444110,-4.689806,-1.7747543,9.603428,-0.014232385,0.060828045,-0.8880108,-141.7779,-58.614334,-36.33025
488018706941245,-4.677831,-0.3496817,10.024961,-0.014232385,0.060828045,-0.8880108,-141.7779,-58.614334,-36.33025
488018715811245,-4.677831,-0.3496817,10.024961,-0.0062422743,0.04058643,-0.60516095,-141.7779,-58.614334,-36.33025
488018723444110,-4.677831,-0.3496817,10.024961,-0.0062422743,0.04058643,-0.60516095,-173.76964,-59.563946,-48.09609
488018727023276,-4.3712606,0.48620123,9.821381,-0.0062422743,0.04058643,-0.60516095,-173.76964,-59.563946,-48.09609
488018735893276,-4.3712606,0.48620123,9.821381,0.0049438803,0.013420057,-0.4735905,-173.76964,-59.563946,-48.09609
488018743444110,-4.3712606,0.48620123,9.821381,0.0049438803,0.013420057,-0.4735905,-156.6781,-62.648285,-54.110004
488018755975255,-4.3712606,0.48620123,9.821381,0.0017478366,1.0320358E-4,-0.40647355,-156.6781,-62.648285,-54.110004
488018747105255,-3.329401,1.4394431,10.0944195,0.0017478366,1.0320358E-4,-0.40647355,-156.6781,-62.648285,-54.110004
488018763444110,-3.329401,1.4394431,10.0944195,0.0017478366,1.0320358E-4,-0.40647355,-148.75471,-53.347122,-81.117455
488018776057182,-3.329401,1.4394431,10.0944195,-0.0046442524,0.010224011,-0.4735905,-148.75471,-53.347122,-81.117455
488018767187182,-3.1353993,1.5472218,10.082444,-0.0046442524,0.010224011,-0.4735905,-148.75471,-53.347122,-81.117455
488018783444110,-3.1353993,1.5472218,10.082444,-0.0046442524,0.010224011,-0.4735905,-164.59857,-38.28494,-96.30239
488018787269005,-3.018041,1.6837412,10.092024,-0.0046442524,0.010224011,-0.4735905,-164.59857,-38.28494,-96.30239
488018796139005,-3.018041,1.6837412,10.092024,-0.005176926,0.024073536,-0.46187165,-164.59857,-38.28494,-96.30239
488018803444110,-3.018041,1.6837412,10.092024,-0.005176926,0.024073536,-0.46187165,-177.0481,-38.66954,-89.721115
488018807350828,-2.637223,1.3292693,9.454933,-0.005176926,0.024073536,-0.46187165,-177.0481,-38.66954,-89.721115
488018816220828,-2.637223,1.3292693,9.454933,-0.005176926,0.039521083,-0.3121903,-177.0481,-38.66954,-89.721115
488018823444110,-2.637223,1.3292693,9.454933,-0.005176926,0.039521083,-0.3121903,-183.86618,-42.720055,-85.73372
488018827432599,-1.2528667,2.5938716,10.161482,-0.005176926,0.039521083,-0.3121903,-183.86618,-42.720055,-85.73372
488018836302599,-1.2528667,2.5938716,10.161482,-0.020624472,-0.0073542334,-0.1396039,-183.86618,-42.720055,-85.73372
488018843444110,-1.2528667,2.5938716,10.161482,-0.020624472,-0.0073542334,-0.1396039,-189.73744,-48.084915,-90.93767
488018856384370,-1.2528667,2.5938716,10.161482,-0.021689821,6.3587725E-4,-0.09113054,-189.73744,-48.084915,-90.93767
488018847514370,-0.96785223,2.5579455,9.98664,-0.021689821,6.3587725E-4,-0.09113054,-189.73744,-48.084915,-90.93767
488018863444110,-0.96785223,2.5579455,9.98664,-0.021689821,6.3587725E-4,-0.09113054,-192.97433,-50.151817,-94.56285
488018867596141,-0.5582935,1.736433,9.97706,-0.021689821,6.3587725E-4,-0.09113054,-192.97433,-50.151817,-94.56285
488018876466141,-0.5582935,1.736433,9.97706,-0.014232385,-0.005223537,0.0047507863,-192.97433,-50.151817,-94.56285
488018883444110,-0.5582935,1.736433,9.97706,-0.014232385,-0.005223537,0.0047507863,-194.80603,-50.51365,-99.14746
488018887677912,0.12669936,0.40716356,9.888442,-0.014232385,-0.005223537,0.0047507863,-194.80603,-50.51365,-99.14746
488018896547912,0.12669936,0.40716356,9.888442,-0.0035789039,-0.00948493,0.0846519,-194.80603,-50.51365,-99.14746
488018903444110,0.12669936,0.40716356,9.888442,-0.0035789039,-0.00948493,0.0846519,-195.09895,-49.78915,-102.37975
488018907759682,-0.062511966,-0.25148344,9.842936,-0.0035789039,-0.00948493,0.0846519,-195.09895,-49.78915,-102.37975
488018916629682,-0.062511966,-0.25148344,9.842936,-0.0041115778,-0.004690863,0.08092318,-195.09895,-49.78915,-102.37975
488018923444110,-0.062511966,-0.25148344,9.842936,-0.0041115778,-0.004690863,0.08092318,-194.51944,-48.036934,-103.51176
488018927841505,0.054846957,-0.48859635,9.893231,-0.0041115778,-0.004690863,0.08092318,-194.51944,-48.036934,-103.51176
488018936711505,0.054846957,-0.48859635,9.893231,-0.005176926,-0.005223537,0.0867826,-194.51944,-48.036934,-103.51176
488018943444110,0.054846957,-0.48859635,9.893231,-0.005176926,-0.005223537,0.0867826,-192.88666,-48.52346,-102.8449
488018947923328,0.09795839,-0.64667165,9.83096,-0.005176926,-0.005223537,0.0867826,-192.88666,-48.52346,-102.8449
488018956793328,0.09795839,-0.64667165,9.83096,-0.005176926,-0.0073542334,0.08997864,-192.88666,-48.52346,-102.8449
488018963444110,0.09795839,-0.64667165,9.83096,-0.005176926,-0.0073542334,0.08997864,-193.7774,-49.946587,-104.927345
488018976875255,0.09795839,-0.64667165,9.83096,-9.1553363E-4,-0.008419581,0.09796876,-193.7774,-49.946587,-104.927345
488018968005255,0.04766172,-0.5987701,9.874072,-9.1553363E-4,-0.008419581,0.09796876,-193.7774,-49.946587,-104.927345
488018983444110,0.04766172,-0.5987701,9.874072,-9.1553363E-4,-0.008419581,0.09796876,-193.22884,-48.848644,-105.57383
488018988087182,0.033291243,-0.6035602,9.835751,-9.1553363E-4,-0.008419581,0.09796876,-193.22884,-48.848644,-105.57383
488018996957182,0.033291243,-0.6035602,9.835751,0.0022805107,-0.008419581,0.08944596,-193.22884,-48.848644,-105.57383
488019003444110,0.033291243,-0.6035602,9.835751,0.0022805107,-0.008419581,0.08944596,-194.23279,-49.08486,-106.04134
488019008169162,-0.033771,-0.76642567,9.816589,0.0022805107,-0.008419581,0.08944596,-194.23279,-49.08486,-106.04134
488019017039162,-0.033771,-0.76642567,9.816589,0.0022805107,-0.0036255158,0.05428947,-194.23279,-49.08486,-106.04134
488019023444110,-0.033771,-0.76642567,9.816589,0.0022805107,-0.0036255158,0.05428947,-193.71565,-48.636467,-105.74647
488019028251245,-0.012215279,-0.505362,9.874072,0.0022805107,-0.0036255158,0.05428947,-193.71565,-48.636467,-105.74647
488019037121245,-0.012215279,-0.505362,9.874072,0.0022805107,-0.0025601666,0.023927052,-193.71565,-48.636467,-105.74647
488019043444110,-0.012215279,-0.505362,9.874072,0.0022805107,-0.0025601666,0.023927052,-193.969,-46.957882,-105.98153
488019057203328,-0.012215279,-0.505362,9.874072,6.824883E-4,-0.006288886,0.0846519,-193.969,-46.957882,-105.98153
488019048333328,0.08837808,0.16765557,9.878861,6.824883E-4,-0.006288886,0.0846519,-193.969,-46.957882,-105.98153
488019063444110,0.08837808,0.16765557,9.878861,6.824883E-4,-0.006288886,0.0846519,-194.05968,-48.94275,-106.65211
488019068415464,-0.12717912,0.6275109,9.917183,6.824883E-4,-0.006288886,0.0846519,-194.05968,-48.94275,-106.65211
488019077285464,-0.12717912,0.6275109,9.917183,0.0012151625,-0.008419581,0.18585995,-194.05968,-48.94275,-106.65211
488019083444110,-0.12717912,0.6275109,9.917183,0.0012151625,-0.008419581,0.18585995,-194.6677,-47.65658,-103.38058
488019097367599,-0.12717912,0.6275109,9.917183,0.0022805107,-0.011082951,0.27747992,-194.6677,-47.65658,-103.38058
488019088497599,-1.2121503,0.7448698,9.893231,0.0022805107,-0.011082951,0.27747992,-194.6677,-47.65658,-103.38058
488019103444110,-1.2121503,0.7448698,9.893231,0.0022805107,-0.011082951,0.27747992,-192.64163,-46.78716,-102.31144
488019117449787,-1.2121503,0.7448698,9.893231,0.0038785327,-0.019073062,0.47350395,-192.64163,-46.78716,-102.31144
488019108579787,-1.6624254,0.84067297,9.9483185,0.0038785327,-0.019073062,0.47350395,-192.64163,-46.78716,-102.31144
488019123444110,-1.6624254,0.84067297,9.9483185,0.0038785327,-0.019073062,0.47350395,-187.72757,-44.30151,-99.732346
488019128661974,0.023710921,1.4801594,9.938739,0.0038785327,-0.019073062,0.47350395,-187.72757,-44.30151,-99.732346
488019137531974,0.023710921,1.4801594,9.938739,0.0017478366,-0.03611863,0.816546,-187.72757,-44.30151,-99.732346
488019143444110,0.023710921,1.4801594,9.938739,0.0017478366,-0.03611863,0.816546,-184.42075,-44.3378,-97.07274
488019157614162,0.023710921,1.4801594,9.938739,0.006541903,-0.045174096,0.8341243,-184.42075,-44.3378,-97.07274
488019148744162,2.9672642,2.2274244,10.039331,0.006541903,-0.045174096,0.8341243,-184.42075,-44.3378,-97.07274
488019163444110,2.9672642,2.2274244,10.039331,0.006541903,-0.045174096,0.8341243,-176.83868,-41.451336,-94.14869
488019177696349,2.9672642,2.2274244,10.039331,0.010270621,-0.03185724,0.45272964,-176.83868,-41.451336,-94.14869
488019168826349,2.334963,1.9639657,9.905208,0.010270621,-0.03185724,0.45272964,-176.83868,-41.451336,-94.14869
488019183444110,2.334963,1.9639657,9.905208,0.010270621,-0.03185724,0.45272964,-170.92915,-35.313004,-90.65174
488019188908537,2.4499269,1.8442116,9.929158,0.010270621,-0.03185724,0.45272964,-170.92915,-35.313004,-90.65174
488019197778537,2.4499269,1.8442116,9.929158,0.010270621,-0.019073062,0.19012134,-170.92915,-35.313004,-90.65174
488019203444110,2.4499269,1.8442116,9.929158,0.010270621,-0.019073062,0.19012134,-169.293,-32.30953,-95.16229
488019217860672,2.4499269,1.8442116,9.929158,0.008672599,-0.0068215597,0.0015547423,-169.293,-32.30953,-95.16229
488019208990672,-0.17508072,0.3927931,9.974665,0.008672599,-0.0068215597,0.0015547423,-169.293,-32.30953,-95.16229
488019223444110,-0.17508072,0.3927931,9.974665,0.008672599,-0.0068215597,0.0015547423,-168.96248,-39.49517,-95.127625
488019229072807,0.109933786,0.20118669,9.941134,0.008672599,-0.0068215597,0.0015547423,-168.96248,-39.49517,-95.127625
488019237942807,0.109933786,0.20118669,9.941134,0.0044112066,-0.0116156265,0.15336683,-168.96248,-39.49517,-95.127625
488019243444110,0.109933786,0.20118669,9.941134,0.0044112066,-0.0116156265,0.15336683,-159.7846,-44.737385,-81.45605
488019258024943,0.109933786,0.20118669,9.941134,-0.0019808828,-0.029726546,0.15869358,-159.7846,-44.737385,-81.45605
488019249154943,1.6547604,1.140058,9.962689,-0.0019808828,-0.029726546,0.15869358,-159.7846,-44.737385,-81.45605
488019263444110,1.6547604,1.140058,9.962689,-0.0019808828,-0.029726546,0.15869358,-144.80145,-46.26876,-69.4985
488019278107026,1.6547604,1.140058,9.962689,-3.8285996E-4,-0.0036255158,-0.09219588,-144.80145,-46.26876,-69.4985
488019269237026,0.59134495,0.210767,9.869282,-3.8285996E-4,-0.0036255158,-0.09219588,-144.80145,-46.26876,-69.4985
488019283444110,0.59134495,0.210767,9.869282,-3.8285996E-4,-0.0036255158,-0.09219588,-142.47266,-46.029827,-68.84959
488019298189057,0.59134495,0.210767,9.869282,0.010803295,0.0043645967,-0.10924146,-142.47266,-46.029827,-68.84959
488019289319057,0.030896157,-0.82869774,9.989036,0.010803295,0.0043645967,-0.10924146,-142.47266,-46.029827,-68.84959
488019303444110,0.030896157,-0.82869774,9.989036,0.010803295,0.0043645967,-0.10924146,-154.79358,-46.982796,-55.09444
488019318271089,0.030896157,-0.82869774,9.989036,0.020391429,0.0059626177,-0.100186,-154.79358,-46.982796,-55.09444
488019309401089,-0.0457464,-1.7436181,9.653724,0.020391429,0.0059626177,-0.100186,-154.79358,-46.982796,-55.09444
488019323444110,-0.0457464,-1.7436181,9.653724,0.020391429,0.0059626177,-0.100186,-159.50368,-44.372986,-36.773598
488019329483068,-1.3295094,-2.4357963,9.974665,0.020391429,0.0059626177,-0.100186,-159.50368,-44.372986,-36.773598
488019338353068,-1.3295094,-2.4357963,9.974665,0.016130038,0.022475515,-0.047451276,-159.50368,-44.372986,-36.773598
488019343444110,-1.3295094,-2.4357963,9.974665,0.016130038,0.022475515,-0.047451276,-156.9534,-42.54639,-24.487658
488019358434995,-1.3295094,-2.4357963,9.974665,0.035838977,0.07893896,0.22474517,-156.9534,-42.54639,-24.487658
488019349564995,-0.22537741,-1.8945084,9.945924,0.035838977,0.07893896,0.22474517,-156.9534,-42.54639,-24.487658
488019363444110,-0.22537741,-1.8945084,9.945924,0.035838977,0.07893896,0.22474517,-147.05612,-35.759346,-9.530548
488019369646974,0.4548253,-2.4334013,9.663304,0.035838977,0.07893896,0.22474517,-147.05612,-35.759346,-9.530548
488019378516974,0.4548253,-2.4334013,9.663304,0.036904324,0.06349141,0.28067595,-147.05612,-35.759346,-9.530548
488019383444110,0.4548253,-2.4334013,9.663304,0.036904324,0.06349141,0.28067595,-124.377686,-11.889442,-39.16149
488019389728901,-0.2613036,-3.4249642,9.615403,0.036904324,0.06349141,0.28067595,-124.377686,-11.889442,-39.16149
488019398598901,-0.2613036,-3.4249642,9.615403,0.019858755,0.030998297,0.0372439,-124.377686,-11.889442,-39.16149
488019403444110,-0.2613036,-3.4249642,9.615403,0.019858755,0.030998297,0.0372439,-124.64874,-14.716838,-55.911037
488019409810776,0.8284578,-1.7005068,9.929158,0.019858755,0.030998297,0.0372439,-124.64874,-14.716838,-55.911037
488019418680776,0.8284578,-1.7005068,9.929158,-0.0046442524,-0.04677211,-0.09698995,-124.64874,-14.716838,-55.911037
488019423444110,0.8284578,-1.7005068,9.929158,-0.0046442524,-0.04677211,-0.09698995,-127.829475,-19.134787,-58.9705
488019429892703,0.57697445,-0.7568453,9.984245,-0.0046442524,-0.04677211,-0.09698995,-127.829475,-19.134787,-58.9705
488019438762703,0.57697445,-0.7568453,9.984245,-0.0057096006,-0.040380023,-0.26424962,-127.829475,-19.134787,-58.9705
488019443444110,0.57697445,-0.7568453,9.984245,-0.0057096006,-0.040380023,-0.26424962,-130.76251,-21.64999,-58.159748
488019449974630,-2.455197,-2.905232,9.708811,-0.0057096006,-0.040380023,-0.26424962,-130.76251,-21.64999,-58.159748
488019458844630,-2.455197,-2.905232,9.708811,0.0033458585,0.0123547055,-0.415529,-130.76251,-21.64999,-58.159748
488019463444110,-2.455197,-2.905232,9.708811,0.0033458585,0.0123547055,-0.415529,-130.33508,-23.00269,-53.527344
488019470056557,-1.6720058,-2.5579453,9.701626,0.0033458585,0.0123547055,-0.415529,-130.33508,-23.00269,-53.527344
488019478926557,-1.6720058,-2.5579453,9.701626,0.0049438803,0.0043645967,-0.101251334,-130.33508,-23.00269,-53.527344
488019483444110,-1.6720058,-2.5579453,9.701626,0.0049438803,0.0043645967,-0.101251334,-133.2766,-22.101427,-52.26625
488019490138485,0.88114953,-0.8861797,9.699231,0.0049438803,0.0043645967,-0.101251334,-133.2766,-22.101427,-52.26625
488019499008485,0.88114953,-0.8861797,9.699231,-0.0014482073,-0.029193867,0.085717246,-133.2766,-22.101427,-52.26625
488019503444110,0.88114953,-0.8861797,9.699231,-0.0014482073,-0.029193867,0.085717246,-136.99313,-20.117523,-53.04856
488019510220464,0.32549098,-0.8550436,9.670489,-0.0014482073,-0.029193867,0.085717246,-136.99313,-20.117523,-53.04856
488019519090464,0.32549098,-0.8550436,9.670489,0.007074577,0.0048972694,-0.12788506,-136.99313,-20.117523,-53.04856
488019523444110,0.32549098,-0.8550436,9.670489,0.007074577,0.0048972694,-0.12788506,-142.20985,-18.449617,-57.194077
488019530302443,-1.3702258,-2.2274246,10.036937,0.007074577,0.0048972694,-0.12788506,-142.20985,-18.449617,-57.194077
488019539172443,-1.3702258,-2.2274246,10.036937,0.006541903,0.013420057,-0.25146544,-142.20985,-18.449617,-57.194077
488019543444110,-1.3702258,-2.2274246,10.036937,0.006541903,0.013420057,-0.25146544,-147.26685,-20.415236,-58.888233
488019559254474,-1.3702258,-2.2274246,10.036937,0.0076072505,0.018746795,-0.09965332,-147.26685,-20.415236,-58.888233
488019550384474,-0.95108664,-2.1196456,9.895627,0.0076072505,0.018746795,-0.09965332,-147.26685,-20.415236,-58.888233
488019563444110,-0.95108664,-2.1196456,9.895627,0.0076072505,0.018746795,-0.09965332,-148.92729,-20.616047,-62.26032
488019570466505,-0.5415279,-1.4107021,9.754318,0.0076072505,0.018746795,-0.09965332,-148.92729,-20.616047,-62.26032
488019579336505,-0.5415279,-1.4107021,9.754318,0.007074577,0.018214121,0.011675549,-148.92729,-20.616047,-62.26032
488019583444110,-0.5415279,-1.4107021,9.754318,0.007074577,0.018214121,0.011675549,-151.78404,-21.58115,-64.559685
488019590548537,-0.2613036,-1.140058,9.854912,0.007074577,0.018214121,0.011675549,-151.78404,-21.58115,-64.559685
488019599418537,-0.2613036,-1.140058,9.854912,0.008672599,0.021942839,0.05855087,-151.78404,-21.58115,-64.559685
488019603444110,-0.2613036,-1.140058,9.854912,0.008672599,0.021942839,0.05855087,-152.6998,-23.525171,-66.010605
488019610630620,-0.46967557,-1.6070987,9.838145,0.008672599,0.021942839,0.05855087,-152.6998,-23.525171,-66.010605
488019619500620,-0.46967557,-1.6070987,9.838145,0.008139925,0.020344818,0.061746914,-152.6998,-23.525171,-66.010605
488019623444110,-0.46967557,-1.6070987,9.838145,0.008139925,0.020344818,0.061746914,-152.3553,-23.223618,-65.56078
488019630712755,0.030896157,-2.5890815,10.120764,0.008139925,0.020344818,0.061746914,-152.3553,-23.223618,-65.56078
488019639582755,0.030896157,-2.5890815,10.120764,-9.1553363E-4,0.008093314,0.06281226,-152.3553,-23.223618,-65.56078
488019643444110,0.030896157,-2.5890815,10.120764,-9.1553363E-4,0.008093314,0.06281226,-153.74173,-24.53802,-65.075
488019650794839,-0.31878555,-1.5687774,9.8597,-9.1553363E-4,0.008093314,0.06281226,-153.74173,-24.53802,-65.075
488019659664839,-0.31878555,-1.5687774,9.8597,-0.0014482073,0.026736904,0.011675549,-153.74173,-24.53802,-65.075
488019663444110,-0.31878555,-1.5687774,9.8597,-0.0014482073,0.026736904,0.011675549,-153.08261,-24.600204,-64.75342
488019670876974,-0.08406768,-0.84067315,9.823775,-0.0014482073,0.026736904,0.011675549,-153.08261,-24.600204,-64.75342
488019679746974,-0.08406768,-0.84067315,9.823775,-0.0062422743,-0.0041581895,0.002087415,-153.08261,-24.600204,-64.75342
488019683444110,-0.08406768,-0.84067315,9.823775,-0.0062422743,-0.0041581895,0.002087415,-152.57748,-24.416977,-64.59861
488019699829110,-0.08406768,-0.84067315,9.823775,-0.0057096006,-0.013746325,-4.3279637E-5,-152.57748,-24.416977,-64.59861
488019690959110,-0.014610359,-0.72091913,9.878861,-0.0057096006,-0.013746325,-4.3279637E-5,-152.57748,-24.416977,-64.59861
488019703444110,-0.014610359,-0.72091913,9.878861,-0.0057096006,-0.013746325,-4.3279637E-5,-154.77573,-25.437965,-65.96863
488019711041245,-0.012215279,-0.6897831,9.797429,-0.0057096006,-0.013746325,-4.3279637E-5,-154.77573,-25.437965,-65.96863
488019719911245,-0.012215279,-0.6897831,9.797429,6.824883E-4,-0.0036255158,4.8939406E-4,-154.77573,-25.437965,-65.96863
488019723444110,-0.012215279,-0.6897831,9.797429,6.824883E-4,-0.0036255158,4.8939406E-4,-153.4338,-25.027258,-64.58953
488019731123380,-0.0026349612,-0.6897831,9.778268,6.824883E-4,-0.0036255158,4.8939406E-4,-153.4338,-25.027258,-64.58953
488019739993380,-0.0026349612,-0.6897831,9.778268,1.4981464E-4,-0.013213646,-0.0021739763,-153.4338,-25.027258,-64.58953
488019743444110,-0.0026349612,-0.6897831,9.778268,1.4981464E-4,-0.013213646,-0.0021739763,-156.27914,-25.72089,-66.141075
488019751205516,0.20094684,-0.7640305,9.809404,1.4981464E-4,-0.013213646,-0.0021739763,-156.27914,-25.72089,-66.141075
488019760075516,0.20094684,-0.7640305,9.809404,-0.008372971,-0.040380023,-0.013360131,-156.27914,-25.72089,-66.141075
488019763444110,0.20094684,-0.7640305,9.809404,-0.008372971,-0.040380023,-0.013360131,-154.59589,-25.170345,-67.1931
488019780157651,0.20094684,-0.7640305,9.809404,-0.0046442524,-0.044108745,-0.100186,-154.59589,-25.170345,-67.1931
488019771287651,0.5314679,-0.97958773,9.864491,-0.0046442524,-0.044108745,-0.100186,-154.59589,-25.170345,-67.1931
488019783444110,0.5314679,-0.97958773,9.864491,-0.0046442524,-0.044108745,-0.100186,-154.75931,-25.02367,-64.16316
488019791369735,0.3997385,-2.3735242,9.768688,-0.0046442524,-0.044108745,-0.100186,-154.75931,-25.02367,-64.16316
488019800239735,0.3997385,-2.3735242,9.768688,0.0017478366,0.0043645967,-0.2567922,-154.75931,-25.02367,-64.16316
488019803444110,0.3997385,-2.3735242,9.768688,0.0017478366,0.0043645967,-0.2567922,-155.8097,-26.33791,-66.86226
488019811451870,1.3457952,-3.1758761,9.682466,0.0017478366,0.0043645967,-0.2567922,-155.8097,-26.33791,-66.86226
488019820321870,1.3457952,-3.1758761,9.682466,-0.0035789039,0.011289358,-0.30792886,-155.8097,-26.33791,-66.86226
488019823444110,1.3457952,-3.1758761,9.682466,-0.0035789039,0.011289358,-0.30792886,-159.37924,-24.721766,-66.56021
488019831533901,1.3577703,-3.9327214,10.235728,-0.0035789039,0.011289358,-0.30792886,-159.37924,-24.721766,-66.56021
488019840403901,1.3577703,-3.9327214,10.235728,0.0038785327,0.056566652,-0.39954883,-159.37924,-24.721766,-66.56021
488019843444110,1.3577703,-3.9327214,10.235728,0.0038785327,0.056566652,-0.39954883,-161.37994,-24.880228,-62.645016
488019860485985,1.3577703,-3.9327214,10.235728,0.051819194,0.27176696,-0.37344778,-161.37994,-24.880228,-62.645016
488019851615985,0.4548253,-6.509827,9.284883,0.051819194,0.27176696,-0.37344778,-161.37994,-24.880228,-62.645016
488019863444110,0.4548253,-6.509827,9.284883,0.051819194,0.27176696,-0.37344778,-162.05301,-21.346464,-57.198322
488019871698016,0.6081104,-3.412989,9.823775,0.051819194,0.27176696,-0.37344778,-162.05301,-21.346464,-57.198322
488019880568016,0.6081104,-3.412989,9.823775,0.053949893,0.2382085,0.15017079,-162.05301,-21.346464,-57.198322
488019883444110,0.6081104,-3.412989,9.823775,0.053949893,0.2382085,0.15017079,-162.13676,-22.820978,-46.79504
488019891780047,0.6344564,-3.0369613,9.929158,0.053949893,0.2382085,0.15017079,-162.13676,-22.820978,-46.79504
488019900650047,0.6344564,-3.0369613,9.929158,0.06300535,0.26430953,0.4026583,-162.13676,-22.820978,-46.79504
488019903444110,0.6344564,-3.0369613,9.929158,0.06300535,0.26430953,0.4026583,-159.21445,-23.914976,-41.206905
488019911862078,1.1302377,-4.4189224,9.387871,0.06300535,0.26430953,0.4026583,-159.21445,-23.914976,-41.206905
488019920732078,1.1302377,-4.4189224,9.387871,0.065668724,0.2632442,0.47030792,-159.21445,-23.914976,-41.206905
488019923444110,1.1302377,-4.4189224,9.387871,0.065668724,0.2632442,0.47030792,-149.99088,-17.498941,-30.200136
488019931944110,2.8523002,-4.543467,9.191474,0.065668724,0.2632442,0.47030792,-149.99088,-17.498941,-30.200136
488019940814110,2.8523002,-4.543467,9.191474,0.06460337,0.24779665,0.28493735,-149.99088,-17.498941,-30.200136
488019943444110,2.8523002,-4.543467,9.191474,0.06460337,0.24779665,0.28493735,-125.52315,-18.087881,-18.530897
488019960896089,2.8523002,-4.543467,9.191474,0.020391429,0.1316737,-0.06982358,-125.52315,-18.087881,-18.530897
488019952026089,2.418791,-2.9148126,9.186683,0.020391429,0.1316737,-0.06982358,-125.52315,-18.087881,-18.530897
488019963444110,2.418791,-2.9148126,9.186683,0.020391429,0.1316737,-0.06982358,-104.448944,-21.052761,-25.981806
488019980978120,2.418791,-2.9148126,9.186683,-0.025951212,-0.032389913,-0.30260214,-104.448944,-21.052761,-25.981806
488019972108120,2.84751,0.4047685,9.692045,-0.025951212,-0.032389913,-0.30260214,-104.448944,-21.052761,-25.981806
488019983444110,2.84751,0.4047685,9.692045,-0.025951212,-0.032389913,-0.30260214,-113.2116,-10.765567,-50.66998
488020001060099,2.84751,0.4047685,9.692045,-0.0014482073,0.017681446,-0.72021854,-113.2116,-10.765567,-50.66998
488019992190099,0.8835447,0.8310927,9.737552,-0.0014482073,0.017681446,-0.72021854,-113.2116,-10.765567,-50.66998
488020003444110,0.8835447,0.8310927,9.737552,-0.0014482073,0.017681446,-0.72021854,-126.10033,1.0877756,-36.909935
488020012272078,-0.46488538,0.7999567,10.065679,-0.0014482073,0.017681446,-0.72021854,-126.10033,1.0877756,-36.909935
488020021142078,-0.46488538,0.7999567,10.065679,0.019858755,0.05869735,-0.9652487,-126.10033,1.0877756,-36.909935
488020023444110,-0.46488538,0.7999567,10.065679,0.019858755,0.05869735,-0.9652487,-119.159065,-9.471964,-20.914719
488020032354110,-1.2313111,1.6094939,9.847726,0.019858755,0.05869735,-0.9652487,-119.159065,-9.471964,-20.914719
488020041224110,-1.2313111,1.6094939,9.847726,0.04169839,0.10930139,-1.1138647,-119.159065,-9.471964,-20.914719
488020043444110,-1.2313111,1.6094939,9.847726,0.04169839,0.10930139,-1.1138647,-120.38732,-21.83986,-24.628237
488020061306141,-1.2313111,1.6094939,9.847726,0.029979562,0.060828045,-1.2518274,-120.38732,-21.83986,-24.628237
488020052436141,-2.2588003,1.975941,10.015381,0.029979562,0.060828045,-1.2518274,-120.38732,-21.83986,-24.628237
488020063444110,-2.2588003,1.975941,10.015381,0.029979562,0.060828045,-1.2518274,-117.715416,-25.196266,-32.166836
488020081388120,-2.2588003,1.975941,10.015381,0.008139925,0.024606211,-1.2166709,-117.715416,-25.196266,-32.166836
488020072518120,-2.9821143,2.902837,9.926764,0.008139925,0.024606211,-1.2166709,-117.715416,-25.196266,-32.166836
488020083444110,-2.9821143,2.902837,9.926764,0.008139925,0.024606211,-1.2166709,-126.21691,-23.13446,-42.636356
488020092600151,-3.386883,3.6357315,9.83096,0.008139925,0.024606211,-1.2166709,-126.21691,-23.13446,-42.636356
488020101470151,-3.386883,3.6357315,9.83096,-0.005176926,-0.015344344,-1.0797735,-126.21691,-23.13446,-42.636356
488020103444110,-3.386883,3.6357315,9.83096,-0.005176926,-0.015344344,-1.0797735,-132.54903,-23.864632,-39.55133
488020112682235,-3.2503633,2.519624,10.151901,-0.005176926,-0.015344344,-1.0797735,-132.54903,-23.864632,-39.55133
488020121552235,-3.2503633,2.519624,10.151901,-0.015297732,-0.018540386,-0.89173967,-132.54903,-23.864632,-39.55133
488020123444110,-3.2503633,2.519624,10.151901,-0.015297732,-0.018540386,-0.89173967,-131.0532,-27.222403,-36.018814
488020132764266,-3.897035,1.7220626,9.931553,-0.015297732,-0.018540386,-0.89173967,-131.0532,-27.222403,-36.018814
488020141634266,-3.897035,1.7220626,9.931553,0.0044112066,0.020877492,-0.67067987,-131.0532,-27.222403,-36.018814
488020143444110,-3.897035,1.7220626,9.931553,0.0044112066,0.020877492,-0.67067987,-130.49132,-29.396524,-35.90605
488020152846349,-3.5473533,1.0059335,9.742342,0.0044112066,0.020877492,-0.67067987,-130.49132,-29.396524,-35.90605
488020161716349,-3.5473533,1.0059335,9.742342,-0.0019808828,0.0048972694,-0.26424962,-130.49132,-29.396524,-35.90605
488020163444110,-3.5473533,1.0059335,9.742342,-0.0019808828,0.0048972694,-0.26424962,-128.74579,-31.065228,-36.3983
488020181798432,-3.5473533,1.0059335,9.742342,-0.008372971,-0.019605737,0.121406406,-128.74579,-31.065228,-36.3983
488020172928432,-1.49956,0.57481915,9.979456,-0.008372971,-0.019605737,0.121406406,-128.74579,-31.065228,-36.3983
488020183444110,-1.49956,0.57481915,9.979456,-0.008372971,-0.019605737,0.121406406,-128.12994,-32.043705,-35.42737
488020201880516,-1.49956,0.57481915,9.979456,-0.0035789039,-0.004690863,0.23752934,-128.12994,-32.043705,-35.42737
488020193010516,-0.26609376,-0.7017585,9.749528,-0.0035789039,-0.004690863,0.23752934,-128.12994,-32.043705,-35.42737
488020203444110,-0.26609376,-0.7017585,9.749528,-0.0035789039,-0.004690863,0.23752934,-128.04349,-30.209538,-36.57414
488020213092599,0.102748565,-1.0969466,9.854912,-0.0035789039,-0.004690863,0.23752934,-128.04349,-30.209538,-36.57414
488020221962599,0.102748565,-1.0969466,9.854912,-0.010503666,-0.029193867,0.25137886,-128.04349,-30.209538,-36.57414
488020223444110,0.102748565,-1.0969466,9.854912,-0.010503666,-0.029193867,0.25137886,-126.96336,-31.946285,-37.230087
488020233174682,0.004550282,-0.6634372,9.936343,-0.010503666,-0.029193867,0.25137886,-126.96336,-31.946285,-37.230087
488020242044682,0.004550282,-0.6634372,9.936343,-0.01636308,-0.028661195,0.26096702,-126.96336,-31.946285,-37.230087
488020243444110,0.004550282,-0.6634372,9.936343,-0.01636308,-0.028661195,0.26096702,-128.02333,-29.833038,-38.415253
488020253256766,-0.49123126,-0.41195378,9.816589,-0.01636308,-0.028661195,0.26096702,-128.02333,-29.833038,-38.415253
488020262126766,-0.49123126,-0.41195378,9.816589,-0.012634364,-0.019073062,0.27907795,-128.02333,-29.833038,-38.415253
488020263444110,-0.49123126,-0.41195378,9.816589,-0.012634364,-0.019073062,0.27907795,-127.262695,-31.350441,-40.15255
488020273338849,0.07879776,0.12454412,9.818985,-0.012634364,-0.019073062,0.27907795,-127.262695,-31.350441,-40.15255
488020282208849,0.07879776,0.12454412,9.818985,-0.022222497,-0.059023622,0.31529975,-127.262695,-31.350441,-40.15255
488020283444110,0.07879776,0.12454412,9.818985,-0.022222497,-0.059023622,0.31529975,-129.4381,-31.828484,-40.02693
488020293420932,0.46201053,-0.16286547,9.953109,-0.022222497,-0.059023622,0.31529975,-129.4381,-31.828484,-40.02693
488020302290932,0.46201053,-0.16286547,9.953109,-0.031277955,-0.10323556,0.24072538,-129.4381,-31.828484,-40.02693
488020303444110,0.46201053,-0.16286547,9.953109,-0.031277955,-0.10323556,0.24072538,-129.72461,-30.97534,-43.569042
488020313503016,0.24405828,-0.18202612,9.802219,-0.031277955,-0.10323556,0.24072538,-129.72461,-30.97534,-43.569042
488020322373016,0.24405828,-0.18202612,9.802219,-0.024885865,-0.09950684,0.23859468,-129.72461,-30.97534,-43.569042
488020323444110,0.24405828,-0.18202612,9.802219,-0.024885865,-0.09950684,0.23859468,-131.24069,-31.517141,-43.27378
488020333585099,-0.13436437,0.22753257,9.902812,-0.024885865,-0.09950684,0.23859468,-131.24069,-31.517141,-43.27378
488020342455099,-0.13436437,0.22753257,9.902812,-0.02435319,-0.11815044,0.22261447,-131.24069,-31.517141,-43.27378
488020343444110,-0.13436437,0.22753257,9.902812,-0.02435319,-0.11815044,0.22261447,-130.93918,-32.13503,-42.478493
488020353667182,-0.026585761,0.6083503,9.96748,-0.02435319,-0.11815044,0.22261447,-130.93918,-32.13503,-42.478493
488020362537182,-0.026585761,0.6083503,9.96748,-0.029679934,-0.13572867,0.20290552,-130.93918,-32.13503,-42.478493
488020363444110,-0.026585761,0.6083503,9.96748,-0.029679934,-0.13572867,0.20290552,-132.73534,-35.21968,-44.200455
488020373749266,-0.00742512,0.78079605,10.084838,-0.029679934,-0.13572867,0.20290552,-132.73534,-35.21968,-44.200455
488020382619266,-0.00742512,0.78079605,10.084838,-0.038735393,-0.16502574,0.18266392,-132.73534,-35.21968,-44.200455
488020383444110,-0.00742512,0.78079605,10.084838,-0.038735393,-0.16502574,0.18266392,-134.70181,-34.756935,-43.961544
488020402701297,-0.00742512,0.78079605,10.084838,-0.036072023,-0.1863327,0.25990164,-134.70181,-34.756935,-43.961544
488020393831297,-0.8576785,0.3568669,10.171061,-0.036072023,-0.1863327,0.25990164,-134.70181,-34.756935,-43.961544
488020403444110,-0.8576785,0.3568669,10.171061,-0.036072023,-0.1863327,0.25990164,-135.73581,-35.656883,-44.855175
488020413913328,1.6379949,1.8633721,10.27405,-0.036072023,-0.1863327,0.25990164,-135.73581,-35.656883,-44.855175
488020422783328,1.6379949,1.8633721,10.27405,-0.009438318,-0.07766721,0.47989607,-135.73581,-35.656883,-44.855175
488020423444110,1.6379949,1.8633721,10.27405,-0.009438318,-0.07766721,0.47989607,-138.65553,-37.919502,-45.11989
488020433995360,2.2463453,2.301672,9.993826,-0.009438318,-0.07766721,0.47989607,-138.65553,-37.919502,-45.11989
488020442865360,2.2463453,2.301672,9.993826,0.011335969,0.03259632,0.452197,-138.65553,-37.919502,-45.11989
488020443444110,2.2463453,2.301672,9.993826,0.011335969,0.03259632,0.452197,-139.38756,-35.724205,-41.589012
488020454077391,1.5972784,1.6837412,10.0944195,0.011335969,0.03259632,0.452197,-139.38756,-35.724205,-41.589012
488020462947391,1.5972784,1.6837412,10.0944195,0.015597361,0.017681446,0.24605213,-139.38756,-35.724205,-41.589012
488020463444110,1.5972784,1.6837412,10.0944195,0.015597361,0.017681446,0.24605213,-138.74467,-36.00905,-37.305084
488020474159422,0.3039353,0.871809,9.557921,0.015597361,0.017681446,0.24605213,-138.74467,-36.00905,-37.305084
488020483029422,0.3039353,0.871809,9.557921,0.0076072505,-0.013213646,0.14271335,-138.74467,-36.00905,-37.305084
488020483444110,0.3039353,0.871809,9.557921,0.0076072505,-0.013213646,0.14271335,-134.16916,-33.69158,-35.029808
488020494241401,-0.69241804,0.1748408,10.0105915,0.0076072505,-0.013213646,0.14271335,-134.16916,-33.69158,-35.029808
488020503111401,-0.69241804,0.1748408,10.0105915,-0.017428428,-0.09311475,0.2300719,-134.16916,-33.69158,-35.029808
488020503444110,-0.69241804,0.1748408,10.0105915,-0.017428428,-0.09311475,0.2300719,-135.72781,-35.350765,-40.764652
488020514323432,-0.38824284,0.871809,10.204593,-0.017428428,-0.09311475,0.2300719,-135.72781,-35.350765,-40.764652
488020523193432,-0.38824284,0.871809,10.204593,-0.02275517,-0.100572184,0.37069786,-135.72781,-35.350765,-40.764652
488020523444110,-0.38824284,0.871809,10.204593,-0.02275517,-0.100572184,0.37069786,-139.66776,-38.07227,-37.534534
488020534405464,1.0583855,1.5783577,10.281235,-0.02275517,-0.100572184,0.37069786,-139.66776,-38.07227,-37.534534
488020543275464,1.0583855,1.5783577,10.281235,-0.019559124,-0.09098406,0.35205427,-139.66776,-38.07227,-37.534534
488020543444110,1.0583855,1.5783577,10.281235,-0.019559124,-0.09098406,0.35205427,-146.1089,-33.9402,-32.851944
488020563357443,1.0583855,1.5783577,10.281235,0.01399934,0.019279469,0.010077527,-146.1089,-33.9402,-32.851944
488020554487443,0.9577921,0.49817663,10.400989,0.01399934,0.019279469,0.010077527,-146.1089,-33.9402,-32.851944
488020563444110,0.9577921,0.49817663,10.400989,0.01399934,0.019279469,0.010077527,-151.19131,-29.374283,-37.28012
488020574569474,-1.7366729,-1.2454416,9.701626,0.01399934,0.019279469,0.010077527,-151.19131,-29.374283,-37.28012
488020583439474,-1.7366729,-1.2454416,9.701626,0.02465282,0.062426068,-0.13321179,-151.19131,-29.374283,-37.28012
488020583444110,-1.7366729,-1.2454416,9.701626,0.02465282,0.062426068,-0.13321179,-143.99786,-27.89101,-39.316574
488020594651453,-2.2396398,-1.6262593,9.763898,0.02465282,0.062426068,-0.13321179,-143.99786,-27.89101,-39.316574
488020603521453,-2.2396398,-1.6262593,9.763898,-9.1553363E-4,-0.040912703,0.21888575,-143.99786,-27.89101,-39.316574
488020603444110,-2.2396398,-1.6262593,9.763898,-9.1553363E-4,-0.040912703,0.21888575,-137.40509,-25.002367,-39.302967
488020623603485,-2.2396398,-1.6262593,9.763898,-0.007840297,-0.087788016,0.4889515,-137.40509,-25.002367,-39.302967
488020614733485,-0.6301459,-0.9604271,10.149506,-0.007840297,-0.087788016,0.4889515,-137.40509,-25.002367,-39.302967
488020623444110,-0.6301459,-0.9604271,10.149506,-0.007840297,-0.087788016,0.4889515,-137.54681,-20.970291,-41.468273
488020634815516,0.6943333,-1.2286761,9.938739,-0.007840297,-0.087788016,0.4889515,-137.54681,-20.970291,-41.468273
488020643685597,0.6943333,-1.2286761,9.938739,-9.1553363E-4,-0.06168698,0.40745237,-137.54681,-20.970291,-41.468273
488020643444138,0.6943333,-1.2286761,9.938739,-9.1553363E-4,-0.06168698,0.40745237,-144.17053,-13.940854,-46.652435
488020663444138,0.6943333,-1.2286761,9.938739,-9.1553363E-4,-0.06168698,0.40745237,-151.12236,-6.991892,-56.400707
488020663767575,0.6943333,-1.2286761,9.938739,0.015597361,-0.0014948193,0.17414112,-151.12236,-6.991892,-56.400707
488020654897575,0.6176908,-2.157967,9.653724,0.015597361,-0.0014948193,0.17414112,-151.12236,-6.991892,-56.400707
488020683444138,0.6176908,-2.157967,9.653724,0.015597361,-0.0014948193,0.17414112,-152.71928,-6.481119,-80.17447
488020674979606,-1.7127221,-3.714769,9.351944,0.015597361,-0.0014948193,0.17414112,-152.71928,-6.481119,-80.17447
488020683849606,-1.7127221,-3.714769,9.351944,0.018793406,0.018214121,0.09850142,-152.71928,-6.481119,-80.17447
488020695061638,-1.6049435,-3.1974318,9.617798,0.018793406,0.018214121,0.09850142,-152.71928,-6.481119,-80.17447
488020703931638,-1.6049435,-3.1974318,9.617798,0.0044112066,-0.047837462,0.39040682,-152.71928,-6.481119,-80.17447
488020703444138,-1.6049435,-3.1974318,9.617798,0.0044112066,-0.047837462,0.39040682,-153.99452,-16.590876,-93.41821
488020723444138,-1.6049435,-3.1974318,9.617798,0.0044112066,-0.047837462,0.39040682,-161.56786,-36.60595,-77.614235
488020715143721,0.21292225,-2.608242,10.115975,0.0044112066,-0.047837462,0.39040682,-161.56786,-36.60595,-77.614235
488020724013721,0.21292225,-2.608242,10.115975,-0.0014482073,-0.08672266,0.5033337,-161.56786,-36.60595,-77.614235
488020735225752,0.76379067,-1.7484084,9.850121,-0.0014482073,-0.08672266,0.5033337,-161.56786,-36.60595,-77.614235
488020743444138,0.76379067,-1.7484084,9.850121,-0.0014482073,-0.08672266,0.5033337,-158.77809,-40.22886,-61.575287
488020744095752,0.76379067,-1.7484084,9.850121,0.011335969,-0.017475042,0.26576108,-158.77809,-40.22886,-61.575287
488020763444138,0.76379067,-1.7484084,9.850121,0.011335969,-0.017475042,0.26576108,-157.3767,-41.815845,-50.98173
488020755307835,-0.6109853,-1.7603838,9.493254,0.011335969,-0.017475042,0.26576108,-157.3767,-41.815845,-50.98173
488020764177835,-0.6109853,-1.7603838,9.493254,0.013466665,0.008625988,0.023927052,-157.3767,-41.815845,-50.98173
488020783444138,-0.6109853,-1.7603838,9.493254,0.013466665,0.008625988,0.023927052,-153.90677,-41.802452,-45.128433
488020775389867,-1.0636555,-1.7220625,9.682466,0.013466665,0.008625988,0.023927052,-153.90677,-41.802452,-45.128433
488020784259867,-1.0636555,-1.7220625,9.682466,0.0028131849,-0.012148302,0.063877605,-153.90677,-41.802452,-45.128433
488020803444138,-1.0636555,-1.7220625,9.682466,0.0028131849,-0.012148302,0.063877605,-152.6505,-43.040573,-37.442516
488020795471950,-0.37866256,-1.4035168,9.96748,0.0028131849,-0.012148302,0.063877605,-152.6505,-43.040573,-37.442516
488020804341950,-0.37866256,-1.4035168,9.96748,0.0038785327,-0.030259218,0.16721636,-152.6505,-43.040573,-37.442516
488020815553981,0.09795839,-1.5520118,9.945924,0.0038785327,-0.030259218,0.16721636,-152.6505,-43.040573,-37.442516
488020823444138,0.09795839,-1.5520118,9.945924,0.0038785327,-0.030259218,0.16721636,-150.5029,-42.86187,-28.281914
488020824423981,0.09795839,-1.5520118,9.945924,-9.1553363E-4,-0.036651306,0.14218068,-150.5029,-42.86187,-28.281914
488020835636013,-0.213402,-1.7340379,9.838145,-9.1553363E-4,-0.036651306,0.14218068,-150.5029,-42.86187,-28.281914
488020843444138,-0.213402,-1.7340379,9.838145,-9.1553363E-4,-0.036651306,0.14218068,-150.08333,-40.804405,-23.806934
488020844506013,-0.213402,-1.7340379,9.838145,0.0033458585,-0.0057562105,0.041505296,-150.08333,-40.804405,-23.806934
488020863444138,-0.213402,-1.7340379,9.838145,0.0033458585,-0.0057562105,0.041505296,-146.16553,-38.245716,-17.30095
488020855718096,-0.3595019,-1.2909482,9.778268,0.0033458585,-0.0057562105,0.041505296,-146.16553,-38.245716,-17.30095
488020864588096,-0.3595019,-1.2909482,9.778268,0.005476555,0.0011685509,0.022329029,-146.16553,-38.245716,-17.30095
488020883444138,-0.3595019,-1.2909482,9.778268,0.005476555,0.0011685509,0.022329029,-146.10751,-36.897804,-14.473491
488020875800127,0.04766172,-1.168799,9.900417,0.005476555,0.0011685509,0.022329029,-146.10751,-36.897804,-14.473491
488020884670127,0.04766172,-1.168799,9.900417,0.009205273,0.016616099,0.03830925,-146.10751,-36.897804,-14.473491
488020895882158,-1.0900012,-2.8980467,9.464513,0.009205273,0.016616099,0.03830925,-146.10751,-36.897804,-14.473491
488020903444138,-1.0900012,-2.8980467,9.464513,0.009205273,0.016616099,0.03830925,-144.31136,-33.813152,-12.75153
488020904752158,-1.0900012,-2.8980467,9.464513,-0.007840297,-0.00948493,0.0031527642,-144.31136,-33.813152,-12.75153
488020923444138,-1.0900012,-2.8980467,9.464513,-0.007840297,-0.00948493,0.0031527642,-143.86238,-34.803524,-11.32771
488020915964190,-0.16071025,-1.049045,9.955504,-0.007840297,-0.00948493,0.0031527642,-143.86238,-34.803524,-11.32771
488020924834190,-0.16071025,-1.049045,9.955504,-0.012634364,-0.030259218,0.007946831,-143.86238,-34.803524,-11.32771
488020936046221,-0.00742512,-0.7951666,10.123159,-0.012634364,-0.030259218,0.007946831,-143.86238,-34.803524,-11.32771
488020943444138,-0.00742512,-0.7951666,10.123159,-0.012634364,-0.030259218,0.007946831,-144.69324,-34.897633,-12.405992
488020944916221,-0.00742512,-0.7951666,10.123159,-0.019026449,-0.066481054,-0.0059026936,-144.69324,-34.897633,-12.405992
488020963444138,-0.00742512,-0.7951666,10.123159,-0.019026449,-0.066481054,-0.0059026936,-143.70882,-35.04421,-10.705124
488020956128252,-0.0098202005,-0.7089437,9.895627,-0.019026449,-0.066481054,-0.0059026936,-143.70882,-35.04421,-10.705124
488020964998252,-0.0098202005,-0.7089437,9.895627,-0.0019808828,-0.02120376,-0.0037719992,-143.70882,-35.04421,-10.705124
488020983444138,-0.0098202005,-0.7089437,9.895627,-0.0019808828,-0.02120376,-0.0037719992,-144.88338,-35.447746,-12.992926
488020976210283,0.02131584,-0.7233142,9.8573065,-0.0019808828,-0.02120376,-0.0037719992,-144.88338,-35.447746,-12.992926
488020985080283,0.02131584,-0.7233142,9.8573065,0.0033458585,-0.0041581895,-0.0016413025,-144.88338,-35.447746,-12.992926
488021003444138,0.02131584,-0.7233142,9.8573065,0.0033458585,-0.0041581895,-0.0016413025,-144.2538,-36.178375,-13.553284
488020996292315,0.01892076,-0.71133876,9.921973,0.0033458585,-0.0041581895,-0.0016413025,-144.2538,-36.178375,-13.553284
488021005162315,0.01892076,-0.71133876,9.921973,-9.1553363E-4,0.0011685509,-0.0021739763,-144.2538,-36.178375,-13.553284
488021023444138,0.01892076,-0.71133876,9.921973,-9.1553363E-4,0.0011685509,-0.0021739763,-146.28282,-37.01788,-11.73555
488021016374294,-0.09604308,-1.8154707,9.715997,-9.1553363E-4,0.0011685509,-0.0021739763,-146.28282,-37.01788,-11.73555
488021025244294,-0.09604308,-1.8154707,9.715997,0.008672599,0.03792306,0.0042181127,-146.28282,-37.01788,-11.73555
488021043444138,-0.09604308,-1.8154707,9.715997,0.008672599,0.03792306,0.0042181127,-143.85051,-34.53678,-11.035712
488021036456325,-1.9666007,-3.1591105,9.181894,0.008672599,0.03792306,0.0042181127,-143.85051,-34.53678,-11.035712
488021045326325,-1.9666007,-3.1591105,9.181894,0.027316192,0.050707236,0.16934706,-143.85051,-34.53678,-11.035712
488021063444138,-1.9666007,-3.1591105,9.181894,0.027316192,0.050707236,0.16934706,-145.0138,-38.385124,-16.50879
488021056538356,0.6967284,-3.4249642,9.749528,0.027316192,0.050707236,0.16934706,-145.0138,-38.385124,-16.50879
488021065408356,0.6967284,-3.4249642,9.749528,-0.006774948,-0.083526626,0.67698544,-145.0138,-38.385124,-16.50879
488021083444138,0.6967284,-3.4249642,9.749528,-0.006774948,-0.083526626,0.67698544,-149.66203,-42.482117,-25.088345
488021076620335,2.9744494,-3.5806446,9.900417,-0.006774948,-0.083526626,0.67698544,-149.66203,-42.482117,-25.088345
488021085490335,2.9744494,-3.5806446,9.900417,-0.017961103,-0.11016032,0.7377103,-149.66203,-42.482117,-25.088345
488021103444138,2.9744494,-3.5806446,9.900417,-0.017961103,-0.11016032,0.7377103,-154.41112,-45.130188,-32.216785
488021096702315,3.053487,-3.7626708,9.66091,-0.017961103,-0.11016032,0.7377103,-154.41112,-45.130188,-32.216785
488021105572315,3.053487,-3.7626708,9.66091,-0.010503666,-0.039847348,0.42929202,-154.41112,-45.130188,-32.216785
488021123444138,3.053487,-3.7626708,9.66091,-0.010503666,-0.039847348,0.42929202,-160.91287,-42.90048,-45.689857
488021116784346,3.4223292,-3.633336,9.627378,-0.010503666,-0.039847348,0.42929202,-160.91287,-42.90048,-45.689857
488021125654346,3.4223292,-3.633336,9.627378,-0.0062422743,-0.019073062,0.22314714,-160.91287,-42.90048,-45.689857
488021143444138,3.4223292,-3.633336,9.627378,-0.0062422743,-0.019073062,0.22314714,-168.07094,-36.725857,-52.21466
488021136866325,4.349225,-2.7519467,9.869282,-0.0062422743,-0.019073062,0.22314714,-168.07094,-36.725857,-52.21466
488021145736325,4.349225,-2.7519467,9.869282,-0.005176926,-0.0116156265,0.069737025,-168.07094,-36.725857,-52.21466
488021163444138,4.349225,-2.7519467,9.869282,-0.005176926,-0.0116156265,0.069737025,-178.7893,-28.641579,-55.56242
488021156948356,5.0437984,-3.2908401,9.689651,-0.005176926,-0.0116156265,0.069737025,-178.7893,-28.641579,-55.56242
488021165818356,5.0437984,-3.2908401,9.689651,-0.017961103,0.030998297,-0.47678658,-178.7893,-28.641579,-55.56242
488021183444138,5.0437984,-3.2908401,9.689651,-0.017961103,0.030998297,-0.47678658,-181.3637,-23.369596,-54.038647
488021177030335,3.88458,-3.8584738,9.433377,-0.017961103,0.030998297,-0.47678658,-181.3637,-23.369596,-54.038647
488021185900335,3.88458,-3.8584738,9.433377,-0.009970992,0.09704988,-1.1080053,-181.3637,-23.369596,-54.038647
488021203444138,3.88458,-3.8584738,9.433377,-0.009970992,0.09704988,-1.1080053,-202.397,-22.794657,-37.051567
488021205982315,3.88458,-3.8584738,9.433377,-0.0062422743,0.13700044,-1.6012615,-202.397,-22.794657,-37.051567
488021197112315,3.084623,-4.4835896,9.732762,-0.0062422743,0.13700044,-1.6012615,-202.397,-22.794657,-37.051567
488021223444138,3.084623,-4.4835896,9.732762,-0.0062422743,0.13700044,-1.6012615,-175.51671,-34.799507,2.104816
488021217194346,1.9230093,-2.7351813,9.912393,-0.0062422743,0.13700044,-1.6012615,-175.51671,-34.799507,2.104816
488021226064346,1.9230093,-2.7351813,9.912393,1.4981464E-4,0.1790817,-2.1168897,-175.51671,-34.799507,2.104816
488021243444138,1.9230093,-2.7351813,9.912393,1.4981464E-4,0.1790817,-2.1168897,-142.83987,-44.94062,-11.445567
488021237276325,0.14585999,0.6275109,10.149506,1.4981464E-4,0.1790817,-2.1168897,-142.83987,-44.94062,-11.445567
488021246146325,0.14585999,0.6275109,10.149506,0.03903502,0.34900472,-2.7497065,-142.83987,-44.94062,-11.445567
488021263444138,0.14585999,0.6275109,10.149506,0.03903502,0.34900472,-2.7497065,-134.65169,-44.482277,-45.640213
488021257358304,-4.316174,2.610637,10.25489,0.03903502,0.34900472,-2.7497065,-134.65169,-44.482277,-45.640213
488021266228304,-4.316174,2.610637,10.25489,0.09123707,0.5253198,-3.381991,-134.65169,-44.482277,-45.640213
488021283444138,-4.316174,2.610637,10.25489,0.09123707,0.5253198,-3.381991,-161.08258,-25.069174,-45.90781
488021277440335,-7.856102,2.9172072,10.223753,0.09123707,0.5253198,-3.381991,-161.08258,-25.069174,-45.90781
488021286310335,-7.856102,2.9172072,10.223753,0.13278565,0.5295812,-3.4166145,-161.08258,-25.069174,-45.90781
488021303444138,-7.856102,2.9172072,10.223753,0.13278565,0.5295812,-3.4166145,-148.43663,-22.843378,-16.38957
488021297522315,-8.735096,2.1747324,11.466799,0.13278565,0.5295812,-3.4166145,-148.43663,-22.843378,-16.38957
488021306392315,-8.735096,2.1747324,11.466799,0.2201442,0.3660503,-2.7411838,-148.43663,-22.843378,-16.38957
488021323444138,-8.735096,2.1747324,11.466799,0.2201442,0.3660503,-2.7411838,-129.66208,-18.1331,-21.053247
488021317604346,-7.4106174,1.3963317,10.901561,0.2201442,0.3660503,-2.7411838,-129.66208,-18.1331,-21.053247
488021326474346,-7.4106174,1.3963317,10.901561,0.5615883,0.18494111,-1.7200478,-129.66208,-18.1331,-21.053247
488021343444138,-7.4106174,1.3963317,10.901561,0.5615883,0.18494111,-1.7200478,-111.21367,-9.224699,-10.260022
488021337686325,-6.6681423,0.32573083,8.398703,0.5615883,0.18494111,-1.7200478,-111.21367,-9.224699,-10.260022
488021346556325,-6.6681423,0.32573083,8.398703,0.73630536,0.13486974,-0.74738497,-111.21367,-9.224699,-10.260022
488021363444138,-6.6681423,0.32573083,8.398703,0.73630536,0.13486974,-0.74738497,-95.8697,-2.9909368,0.28337395
488021357768304,-4.965241,0.8071419,8.573544,0.73630536,0.13486974,-0.74738497,-95.8697,-2.9909368,0.28337395
488021366638304,-4.965241,0.8071419,8.573544,0.39805737,0.0906578,0.021263681,-95.8697,-2.9909368,0.28337395
488021383444138,-4.965241,0.8071419,8.573544,0.39805737,0.0906578,0.021263681,-87.81411,-0.5692198,4.455542
488021377850335,-2.038453,1.3196892,7.9196854,0.39805737,0.0906578,0.021263681,-87.81411,-0.5692198,4.455542
488021386720335,-2.038453,1.3196892,7.9196854,0.0033458585,0.033128995,0.51505256,-87.81411,-0.5692198,4.455542
488021403444138,-2.038453,1.3196892,7.9196854,0.0033458585,0.033128995,0.51505256,-100.75924,-1.2331063,1.6136079
488021397932315,-0.69241804,1.0706007,9.416611,0.0033458585,0.033128995,0.51505256,-100.75924,-1.2331063,1.6136079
488021406802315,-0.69241804,1.0706007,9.416611,-0.3897676,-0.05689292,0.71373993,-100.75924,-1.2331063,1.6136079
488021423444138,-0.69241804,1.0706007,9.416611,-0.3897676,-0.05689292,0.71373993,-111.34634,-1.1796747,-5.313355
488021418014346,2.267901,0.6083503,11.48117,-0.3897676,-0.05689292,0.71373993,-111.34634,-1.1796747,-5.313355
488021426884346,2.267901,0.6083503,11.48117,-0.4840509,-0.086189985,0.735047,-111.34634,-1.1796747,-5.313355
488021443444138,2.267901,0.6083503,11.48117,-0.4840509,-0.086189985,0.735047,-118.74433,-3.6478264,-7.644535
488021438096325,3.7241096,-1.2813678,13.064318,-0.4840509,-0.086189985,0.735047,-118.74433,-3.6478264,-7.644535
488021446966325,3.7241096,-1.2813678,13.064318,-0.13461672,-0.022269104,0.52251,-118.74433,-3.6478264,-7.644535
488021463444138,3.7241096,-1.2813678,13.064318,-0.13461672,-0.022269104,0.52251,-103.74905,-1.39096,2.4664125
488021458178304,1.2020903,-0.388003,10.25489,-0.13461672,-0.022269104,0.52251,-103.74905,-1.39096,2.4664125
488021467048304,1.2020903,-0.388003,10.25489,0.52003974,0.067752816,0.15336683,-103.74905,-1.39096,2.4664125
488021483444138,1.2020903,-0.388003,10.25489,0.52003974,0.067752816,0.15336683,-90.99452,-1.079252,11.096989
488021478260283,-0.8816292,-0.047901638,6.8658504,0.52003974,0.067752816,0.15336683,-90.99452,-1.079252,11.096989
488021487130283,-0.8816292,-0.047901638,6.8658504,0.5253664,0.12847766,-0.017621525,-90.99452,-1.079252,11.096989
488021503444138,-0.8816292,-0.047901638,6.8658504,0.5253664,0.12847766,-0.017621525,-92.62869,-0.57855016,11.797596
488021498342263,0.17699605,-0.050296724,9.220214,0.5253664,0.12847766,-0.017621525,-92.62869,-0.57855016,11.797596
488021507212263,0.17699605,-0.050296724,9.220214,-0.026483888,-0.005223537,0.028188443,-92.62869,-0.57855016,11.797596
488021523444138,0.17699605,-0.050296724,9.220214,-0.026483888,-0.005223537,0.028188443,-95.83573,-1.9801581,8.750473
488021518424242,-0.393033,-0.48620126,10.769832,-0.026483888,-0.005223537,0.028188443,-95.83573,-1.9801581,8.750473
488021527294242,-0.393033,-0.48620126,10.769832,-0.18681876,-0.020671085,-0.00270665,-95.83573,-1.9801581,8.750473
488021543444138,-0.393033,-0.48620126,10.769832,-0.18681876,-0.020671085,-0.00270665,-99.467026,-1.6741332,9.871637
488021538506221,-0.4385395,-0.3616571,9.931553,-0.18681876,-0.020671085,-0.00270665,-99.467026,-1.6741332,9.871637
488021547376221,-0.4385395,-0.3616571,9.931553,-0.042996787,0.008093314,0.0052834605,-99.467026,-1.6741332,9.871637
488021563444138,-0.4385395,-0.3616571,9.931553,-0.042996787,0.008093314,0.0052834605,-99.94712,-1.3364604,9.085291
488021558588200,-0.11520372,-0.22513756,9.126807,-0.042996787,0.008093314,0.0052834605,-99.94712,-1.3364604,9.085291
488021567458200,-0.11520372,-0.22513756,9.126807,-0.045127477,0.0022339001,0.026057748,-99.94712,-1.3364604,9.085291
488021583444138,-0.11520372,-0.22513756,9.126807,-0.045127477,0.0022339001,0.026057748,-101.78677,-1.811188,6.3299108
488021578670127,-0.2636987,-0.41434887,9.821381,-0.045127477,0.0022339001,0.026057748,-101.78677,-1.811188,6.3299108
488021587540127,-0.2636987,-0.41434887,9.821381,-0.178296,-0.043043394,0.01593694,-101.78677,-1.811188,6.3299108
488021603444138,-0.2636987,-0.41434887,9.821381,-0.178296,-0.043043394,0.01593694,-107.451965,-2.6822758,2.1394687
488021598752106,-0.3235757,-0.5915848,10.70756,-0.178296,-0.043043394,0.01593694,-107.451965,-2.6822758,2.1394687
488021607622106,-0.3235757,-0.5915848,10.70756,-0.19054748,-0.015344344,0.017534964,-107.451965,-2.6822758,2.1394687
488021623444138,-0.3235757,-0.5915848,10.70756,-0.19054748,-0.015344344,0.017534964,-106.55827,-1.2890722,1.3350403
488021618834085,-0.0050300397,-0.49099144,10.674028,-0.19054748,-0.015344344,0.017534964,-106.55827,-1.2890722,1.3350403
488021627704085,-0.0050300397,-0.49099144,10.674028,-0.009438318,0.04165178,0.026590422,-106.55827,-1.2890722,1.3350403
488021643444138,-0.0050300397,-0.49099144,10.674028,-0.009438318,0.04165178,0.026590422,-104.12638,-2.3278935,4.3254185
488021638916013,-0.13675943,-0.24429819,8.978312,-0.009438318,0.04165178,0.026590422,-104.12638,-2.3278935,4.3254185
488021647786013,-0.13675943,-0.24429819,8.978312,0.12745892,0.019279469,-0.017621525,-104.12638,-2.3278935,4.3254185
488021663444138,-0.13675943,-0.24429819,8.978312,0.12745892,0.019279469,-0.017621525,-103.44863,-1.9978274,4.32529
488021658997992,-0.01940052,-0.27543426,9.371105,0.12745892,0.019279469,-0.017621525,-103.44863,-1.9978274,4.32529
488021667867992,-0.01940052,-0.27543426,9.371105,-0.034474,-0.043576065,-0.046918597,-103.44863,-1.9978274,4.32529
488021683444138,-0.01940052,-0.27543426,9.371105,-0.034474,-0.043576065,-0.046918597,-107.40803,-1.7722781,0.8823487
488021687949971,-0.01940052,-0.27543426,9.371105,-0.15645634,-0.017475042,-0.08420578,-107.40803,-1.7722781,0.8823487
488021679079971,-0.110413566,-0.4502751,9.996221,-0.15645634,-0.017475042,-0.08420578,-107.40803,-1.7722781,0.8823487
488021703444138,-0.110413566,-0.4502751,9.996221,-0.15645634,-0.017475042,-0.08420578,-112.08285,-2.6565673,-1.4612273
488021699161898,-0.36908218,-0.536498,10.063283,-0.15645634,-0.017475042,-0.08420578,-112.08285,-2.6565673,-1.4612273
488021708031898,-0.36908218,-0.536498,10.063283,-0.15911973,0.07361222,-0.101251334,-112.08285,-2.6565673,-1.4612273
488021723444138,-0.36908218,-0.536498,10.063283,-0.15911973,0.07361222,-0.101251334,-113.029594,-1.7302178,-4.2613316
488021719243877,-0.2014266,-0.49338654,10.056098,-0.15911973,0.07361222,-0.101251334,-113.029594,-1.7302178,-4.2613316
488021728113877,-0.2014266,-0.49338654,10.056098,-0.11544046,0.05337061,-0.09166321,-113.029594,-1.7302178,-4.2613316
488021743444138,-0.2014266,-0.49338654,10.056098,-0.11544046,0.05337061,-0.09166321,-116.06102,-2.8216925,-4.430521
488021739325804,-0.8049867,-0.5221275,9.337574,-0.11544046,0.05337061,-0.09166321,-116.06102,-2.8216925,-4.430521
488021748195804,-0.8049867,-0.5221275,9.337574,-0.105319634,0.02726958,-0.07195427,-116.06102,-2.8216925,-4.430521
488021763444138,-0.8049867,-0.5221275,9.337574,-0.105319634,0.02726958,-0.07195427,-119.68919,-2.5471616,-6.3481755
488021759407783,-0.49602145,-0.48859635,9.469303,-0.105319634,0.02726958,-0.07195427,-119.68919,-2.5471616,-6.3481755
488021768277783,-0.49602145,-0.48859635,9.469303,-0.2006683,-0.055827577,0.013806245,-119.68919,-2.5471616,-6.3481755
488021783444138,-0.49602145,-0.48859635,9.469303,-0.2006683,-0.055827577,0.013806245,-125.70952,-3.999152,-12.49596
488021788359710,-0.49602145,-0.48859635,9.469303,-0.28536347,-0.066481054,0.05322412,-125.70952,-3.999152,-12.49596
488021779489710,0.01892076,-0.76642567,10.075258,-0.28536347,-0.066481054,0.05322412,-125.70952,-3.999152,-12.49596
488021803444138,0.01892076,-0.76642567,10.075258,-0.28536347,-0.066481054,0.05322412,-133.44455,-6.8444467,-22.570122
488021799571690,0.22729272,-0.7712158,11.033291,-0.28536347,-0.066481054,0.05322412,-133.44455,-6.8444467,-22.570122
488021808441690,0.22729272,-0.7712158,11.033291,-0.15112962,-0.018007714,0.022861704,-133.44455,-6.8444467,-22.570122
488021823444138,0.22729272,-0.7712158,11.033291,-0.15112962,-0.018007714,0.022861704,-134.64885,-4.1969967,-21.502882
488021819653669,-0.28046423,-0.6370914,9.98664,-0.15112962,-0.018007714,0.022861704,-134.64885,-4.1969967,-21.502882
488021828523669,-0.28046423,-0.6370914,9.98664,0.10988067,0.07840629,-0.0325364,-134.64885,-4.1969967,-21.502882
488021843444138,-0.28046423,-0.6370914,9.98664,0.10988067,0.07840629,-0.0325364,-130.34573,-4.1131163,-16.850418
488021839735596,-0.3595019,-0.5005718,8.90646,0.10988067,0.07840629,-0.0325364,-130.34573,-4.1131163,-16.850418
488021848605596,-0.3595019,-0.5005718,8.90646,0.12106682,0.062426068,-0.03306907,-130.34573,-4.1131163,-16.850418
488021863444138,-0.3595019,-0.5005718,8.90646,0.12106682,0.062426068,-0.03306907,-127.04345,-4.296954,-15.7042885
488021859817575,-0.3595019,-0.5580537,9.277697,0.12106682,0.062426068,-0.03306907,-127.04345,-4.296954,-15.7042885
488021868687575,-0.3595019,-0.5580537,9.277697,-0.07016316,-0.0030928403,-0.019752221,-127.04345,-4.296954,-15.7042885
488021883444138,-0.3595019,-0.5580537,9.277697,-0.07016316,-0.0030928403,-0.019752221,-132.22104,-5.3880887,-20.481794
488021879899502,-0.088857844,-0.72810435,10.757855,-0.07016316,-0.0030928403,-0.019752221,-132.22104,-5.3880887,-20.481794
488021888769502,-0.088857844,-0.72810435,10.757855,-0.13568206,-0.008419581,0.0026200905,-132.22104,-5.3880887,-20.481794
488021903444138,-0.088857844,-0.72810435,10.757855,-0.13568206,-0.008419581,0.0026200905,-132.6702,-4.396143,-21.753672
488021899981481,-0.40021825,-0.5843995,9.715997,-0.13568206,-0.008419581,0.0026200905,-132.6702,-4.396143,-21.753672
488021908851481,-0.40021825,-0.5843995,9.715997,0.0044112066,0.049641892,0.0026200905,-132.6702,-4.396143,-21.753672
488021923444138,-0.40021825,-0.5843995,9.715997,0.0044112066,0.049641892,0.0026200905,-132.63971,-3.7371466,-21.78338
488021920063408,-0.11280864,-0.6275111,9.751923,0.0044112066,0.049641892,0.0026200905,-132.63971,-3.7371466,-21.78338
488021928933408,-0.11280864,-0.6275111,9.751923,0.008139925,0.053903285,0.014338919,-132.63971,-3.7371466,-21.78338
488021943444138,-0.11280864,-0.6275111,9.751923,0.008139925,0.053903285,0.014338919,-132.51051,-4.5050263,-21.137028
488021940145388,-0.46249035,-0.61074543,9.775873,0.008139925,0.053903285,0.014338919,-132.51051,-4.5050263,-21.137028
488021949015388,-0.46249035,-0.61074543,9.775873,0.01399934,0.023008186,-0.0075007165,-132.51051,-4.5050263,-21.137028
488021963444138,-0.46249035,-0.61074543,9.775873,0.01399934,0.023008186,-0.0075007165,-132.25923,-2.6384954,-20.761452
488021960227315,-0.14633976,-0.6634372,10.015381,0.01399934,0.023008186,-0.0075007165,-132.25923,-2.6384954,-20.761452
488021969097315,-0.14633976,-0.6634372,10.015381,-0.0073076226,0.013420057,0.006881483,-132.25923,-2.6384954,-20.761452
488021983444138,-0.14633976,-0.6634372,10.015381,-0.0073076226,0.013420057,0.006881483,-132.6827,-4.6565924,-21.437906
488021989179242,-0.14633976,-0.6634372,10.015381,0.011335969,0.049641892,0.0074141566,-132.6827,-4.6565924,-21.437906
488021980309242,-0.2972298,-0.6059553,9.895627,0.011335969,0.049641892,0.0074141566,-132.6827,-4.6565924,-21.437906
488022003444138,-0.2972298,-0.6059553,9.895627,0.011335969,0.049641892,0.0074141566,-133.52808,-4.990678,-20.22519
488022000391221,-0.34992155,-0.6155356,9.83096,0.011335969,0.049641892,0.0074141566,-133.52808,-4.990678,-20.22519
488022009261221,-0.34992155,-0.6155356,9.83096,0.013466665,0.057631996,0.007946831,-133.52808,-4.990678,-20.22519
488022023444138,-0.34992155,-0.6155356,9.83096,0.013466665,0.057631996,0.007946831,-132.85767,-4.7798123,-19.003849
488022020473148,-0.3307609,-0.6586471,9.869282,0.013466665,0.057631996,0.007946831,-132.85767,-4.7798123,-19.003849
488022029343148,-0.3307609,-0.6586471,9.869282,0.007074577,0.035792366,0.0031527642,-132.85767,-4.7798123,-19.003849
488022043444138,-0.3307609,-0.6586471,9.869282,0.007074577,0.035792366,0.0031527642,-131.86528,-4.8134866,-19.132215
488022040555075,-0.34034127,-0.63469625,9.945924,0.007074577,0.035792366,0.0031527642,-131.86528,-4.8134866,-19.132215
488022049425075,-0.34034127,-0.63469625,9.945924,0.009205273,0.036857713,0.0036854378,-131.86528,-4.8134866,-19.132215
488022063444138,-0.34034127,-0.63469625,9.945924,0.009205273,0.036857713,0.0036854378,-131.86528,-4.8134866,-19.132215
488022060637054,-0.33315602,-0.6155356,9.828565,0.009205273,0.036857713,0.0036854378,-131.86528,-4.8134866,-19.132215
488022069507054,-0.33315602,-0.6155356,9.828565,0.016130038,0.050707236,0.0036854378,-131.86528,-4.8134866,-19.132215
488022083444138,-0.33315602,-0.6155356,9.828565,0.016130038,0.050707236,0.0036854378,-130.82097,-3.6310458,-16.42718
488022080718981,-0.31399536,-0.6035602,9.847726,0.016130038,0.050707236,0.0036854378,-130.82097,-3.6310458,-16.42718
488022089588981,-0.31399536,-0.6035602,9.847726,0.010803295,0.033661667,0.002087415,-130.82097,-3.6310458,-16.42718
488022103444138,-0.31399536,-0.6035602,9.847726,0.010803295,0.033661667,0.002087415,-129.05685,-4.9075017,-17.241138
488022100800908,-0.34034127,-0.61793065,9.864491,0.010803295,0.033661667,0.002087415,-129.05685,-4.9075017,-17.241138
488022109670908,-0.34034127,-0.61793065,9.864491,0.006541903,0.017681446,0.0015547423,-129.05685,-4.9075017,-17.241138
488022123444138,-0.34034127,-0.61793065,9.864491,0.006541903,0.017681446,0.0015547423,-130.52979,-4.53143,-17.443296
488022120882835,-0.35231665,-0.6370914,9.854912,0.006541903,0.017681446,0.0015547423,-130.52979,-4.53143,-17.443296
488022129752835,-0.35231665,-0.6370914,9.854912,0.0044112066,0.011822032,4.8939406E-4,-130.52979,-4.53143,-17.443296
488022143444138,-0.35231665,-0.6370914,9.854912,0.0044112066,0.011822032,4.8939406E-4,-130.82019,-3.6389194,-17.186884
488022140964763,-0.34752646,-0.62511593,9.926764,0.0044112066,0.011822032,4.8939406E-4,-130.82019,-3.6389194,-17.186884
488022149834763,-0.34752646,-0.62511593,9.926764,0.0022805107,0.0064952914,-5.759542E-4,-130.82019,-3.6389194,-17.186884
488022163444138,-0.34752646,-0.62511593,9.926764,0.0022805107,0.0064952914,-5.759542E-4,-129.65594,-3.5178766,-16.71049
488022161046690,-0.27088392,-0.6011651,9.883652,0.0022805107,0.0064952914,-5.759542E-4,-129.65594,-3.5178766,-16.71049
488022169916690,-0.27088392,-0.6011651,9.883652,0.005476555,0.017681446,-0.0016413025,-129.65594,-3.5178766,-16.71049
488022183444138,-0.27088392,-0.6011651,9.883652,0.005476555,0.017681446,-0.0016413025,-131.25807,-2.3739252,-17.559
488022181128617,-0.30681014,-0.61074543,9.840541,0.005476555,0.017681446,-0.0016413025,-131.25807,-2.3739252,-17.559
488022189998617,-0.30681014,-0.61074543,9.840541,0.005476555,0.017148772,-0.013892806,-131.25807,-2.3739252,-17.559
488022203444138,-0.30681014,-0.61074543,9.840541,0.005476555,0.017148772,-0.013892806,-127.48665,-3.1716344,-16.830168
488022201210544,-0.3810576,-0.6370914,9.869282,0.005476555,0.017148772,-0.013892806,-127.48665,-3.1716344,-16.830168
488022210080544,-0.3810576,-0.6370914,9.869282,0.005476555,0.016616099,-0.013892806,-127.48665,-3.1716344,-16.830168
488022223444138,-0.3810576,-0.6370914,9.869282,0.005476555,0.016616099,-0.013892806,-129.29378,-2.8146243,-15.670735
488022221292471,-0.3235757,-0.62511593,9.840541,0.005476555,0.016616099,-0.013892806,-129.29378,-2.8146243,-15.670735
488022230162471,-0.3235757,-0.62511593,9.840541,0.011335969,0.03419434,-0.008566066,-129.29378,-2.8146243,-15.670735
488022243444138,-0.3235757,-0.62511593,9.840541,0.011335969,0.03419434,-0.008566066,-130.3587,-4.368841,-16.07883
488022241374398,-0.39782315,-0.5915848,9.744737,0.011335969,0.03419434,-0.008566066,-130.3587,-4.368841,-16.07883
488022250244398,-0.39782315,-0.5915848,9.744737,0.009205273,0.028867602,-0.018686874,-130.3587,-4.368841,-16.07883
488022263444138,-0.39782315,-0.5915848,9.744737,0.009205273,0.028867602,-0.018686874,-128.6814,-3.951672,-17.276854
488022270326325,-0.39782315,-0.5915848,9.744737,-0.0014482073,-0.0073542334,-0.020284893,-128.6814,-3.951672,-17.276854
488022261456325,-0.36429206,-0.61074543,9.809404,-0.0014482073,-0.0073542334,-0.020284893,-128.6814,-3.951672,-17.276854
488022283444138,-0.36429206,-0.61074543,9.809404,-0.0014482073,-0.0073542334,-0.020284893,-129.52553,-4.2983546,-17.279663
488022281538252,-0.40979856,-0.62511593,9.874072,-0.0014482073,-0.0073542334,-0.020284893,-129.52553,-4.2983546,-17.279663
488022290408252,-0.40979856,-0.62511593,9.874072,1.4981464E-4,-0.014278997,-0.012294783,-129.52553,-4.2983546,-17.279663
488022303444138,-0.40979856,-0.62511593,9.874072,1.4981464E-4,-0.014278997,-0.012294783,-128.7946,-2.764773,-15.661919
488022310490179,-0.40979856,-0.62511593,9.874072,0.010270621,0.018746795,4.8939406E-4,-128.7946,-2.764773,-15.661919
488022301620179,-0.32836583,-0.6011651,9.912393,0.010270621,0.018746795,4.8939406E-4,-128.7946,-2.764773,-15.661919
488022323444138,-0.32836583,-0.6011651,9.912393,0.010270621,0.018746795,4.8939406E-4,-126.80906,-2.8399937,-16.678354
488022321702106,-0.13675943,-0.56763405,9.931553,0.010270621,0.018746795,4.8939406E-4,-126.80906,-2.8399937,-16.678354
488022330572106,-0.13675943,-0.56763405,9.931553,1.4981464E-4,-0.002027493,0.019665658,-126.80906,-2.8399937,-16.678354
488022343444138,-0.13675943,-0.56763405,9.931553,1.4981464E-4,-0.002027493,0.019665658,-127.17232,-3.532223,-16.654524
488022341784033,-0.31878555,-0.6155356,9.854912,1.4981464E-4,-0.002027493,0.019665658,-127.17232,-3.532223,-16.654524
488022350654033,-0.31878555,-0.6155356,9.854912,0.0012151625,0.010224011,0.0063488088,-127.17232,-3.532223,-16.654524
488022363444138,-0.31878555,-0.6155356,9.854912,0.0012151625,0.010224011,0.0063488088,-128.5347,-4.316282,-15.88862
488022370735960,-0.31878555,-0.6155356,9.854912,0.008139925,0.03419434,-0.0064353673,-128.5347,-4.316282,-15.88862
488022361865960,-0.23016757,-0.6203258,9.919579,0.008139925,0.03419434,-0.0064353673,-128.5347,-4.316282,-15.88862
488022383444138,-0.23016757,-0.6203258,9.919579,0.008139925,0.03419434,-0.0064353673,-128.10374,-2.180558,-16.585575
488022390817888,-0.23016757,-0.6203258,9.919579,0.010270621,0.035259694,-0.015490827,-128.10374,-2.180558,-16.585575
488022381947888,-0.4768608,-0.5987701,9.682466,0.010270621,0.035259694,-0.015490827,-128.10374,-2.180558,-16.585575
488022403444138,-0.4768608,-0.5987701,9.682466,0.010270621,0.035259694,-0.015490827,-128.96803,-2.903742,-14.74727