time,aX,aY,aZ,wX,wY,wZ,mX,mY,mZ
1556489444490,0.29195988,10.006643,0.68175435,0.10081856,-0.018031016,-0.07283651,-0.9135742,-41.680916,-21.087019
1556489444504,0.29195988,10.006643,0.68175435,0.10081856,-0.018031016,-0.07283651,-0.95594597,-42.606667,-21.34931
1556489444502,0.23447797,9.906051,0.6673839,0.10081856,-0.018031016,-0.07283651,-0.95594597,-42.606667,-21.34931
1556489444510,0.23447797,9.906051,0.6673839,0.11999482,-0.09953014,-0.030755267,-0.95594597,-42.606667,-21.34931
1556489444524,0.23447797,9.906051,0.6673839,0.11999482,-0.09953014,-0.030755267,1.1737633,-39.49665,-20.381174
1556489444530,0.23447797,9.906051,0.6673839,0.13970377,-0.1496015,0.008662611,1.1737633,-39.49665,-20.381174
1556489444521,0.41410896,9.649776,0.9260525,0.13970377,-0.1496015,0.008662611,1.1737633,-39.49665,-20.381174
1556489444544,0.41410896,9.649776,0.9260525,0.13970377,-0.1496015,0.008662611,0.7492161,-41.503723,-19.994047
1556489444550,0.41410896,9.649776,0.9260525,0.21108209,-0.07715783,-0.017438417,0.7492161,-41.503723,-19.994047
1556489444541,0.40213355,9.094118,0.969164,0.21108209,-0.07715783,-0.017438417,0.7492161,-41.503723,-19.994047
1556489444564,0.40213355,9.094118,0.969164,0.21108209,-0.07715783,-0.017438417,1.8909397,-41.92878,-21.317175
1556489444571,0.40213355,9.094118,0.969164,0.32294363,0.05121661,-0.06644442,1.8909397,-41.92878,-21.317175
1556489444562,0.13867477,8.691745,0.21710888,0.32294363,0.05121661,-0.06644442,1.8909397,-41.92878,-21.317175
1556489444584,0.13867477,8.691745,0.21710888,0.32294363,0.05121661,-0.06644442,1.4396229,-40.914787,-20.461882
1556489444582,-0.0577218,8.473793,-0.6547002,0.32294363,0.05121661,-0.06644442,1.4396229,-40.914787,-20.461882
1556489444590,-0.0577218,8.473793,-0.6547002,0.36662292,0.055478003,-0.055790946,1.4396229,-40.914787,-20.461882
1556489444604,-0.0577218,8.473793,-0.6547002,0.36662292,0.055478003,-0.055790946,0.76626205,-41.095734,-18.796343
1556489444602,0.04047647,8.143271,-0.9325295,0.36662292,0.055478003,-0.055790946,0.76626205,-41.095734,-18.796343
1556489444610,0.04047647,8.143271,-0.9325295,0.3069634,-0.08088655,0.018783418,0.76626205,-41.095734,-18.796343
1556489444624,0.04047647,8.143271,-0.9325295,0.3069634,-0.08088655,0.018783418,-0.55858994,-41.098442,-18.97774
1556489444622,0.49314657,7.80317,-0.85828197,0.3069634,-0.08088655,0.018783418,-0.55858994,-41.098442,-18.97774
1556489444631,0.49314657,7.80317,-0.85828197,0.24517323,-0.20926102,0.05926665,-0.55858994,-41.098442,-18.97774
1556489444644,0.49314657,7.80317,-0.85828197,0.24517323,-0.20926102,0.05926665,0.065057755,-41.96244,-19.684095
1556489444642,0.6009252,7.5349216,-1.0259377,0.24517323,-0.20926102,0.05926665,0.065057755,-41.96244,-19.684095
1556489444651,0.6009252,7.5349216,-1.0259377,0.18391572,-0.12616386,-0.05152955,0.065057755,-41.96244,-19.684095
1556489444664,0.6009252,7.5349216,-1.0259377,0.18391572,-0.12616386,-0.05152955,1.9622421,-40.328293,-19.565184
1556489444662,-0.064907044,7.041535,-1.0379131,0.18391572,-0.12616386,-0.05152955,1.9622421,-40.328293,-19.565184
1556489444671,-0.064907044,7.041535,-1.0379131,0.050214514,-0.049991466,-0.22251794,1.9622421,-40.328293,-19.565184
1556489444684,-0.064907044,7.041535,-1.0379131,0.050214514,-0.049991466,-0.22251794,1.3969402,-41.83738,-20.42029
1556489444683,-0.7858261,6.4044437,0.0063418397,0.050214514,-0.049991466,-0.22251794,1.3969402,-41.83738,-20.42029
1556489444691,-0.7858261,6.4044437,0.0063418397,-0.07176784,-0.22790459,-0.26939324,1.3969402,-41.83738,-20.42029
1556489444704,-0.7858261,6.4044437,0.0063418397,-0.07176784,-0.22790459,-0.26939324,1.3444271,-42.85398,-16.726171
1556489444703,-0.9486915,5.8511806,0.8853362,-0.07176784,-0.22790459,-0.26939324,1.3444271,-42.85398,-16.726171
1556489444711,-0.9486915,5.8511806,0.8853362,-0.107989684,-0.17889859,-0.2859061,1.3444271,-42.85398,-16.726171
1556489444724,-0.9486915,5.8511806,0.8853362,-0.107989684,-0.17889859,-0.2859061,1.5555191,-41.93524,-18.740057
1556489444731,-0.9486915,5.8511806,0.8853362,0.010796637,-0.05585087,-0.29123288,1.5555191,-41.93524,-18.740057
1556489444722,-2.225269,5.106311,1.1943016,0.010796637,-0.05585087,-0.29123288,1.5555191,-41.93524,-18.740057
1556489444744,-2.225269,5.106311,1.1943016,0.010796637,-0.05585087,-0.29123288,3.2328396,-41.518074,-19.938078
1556489444742,-2.5366297,5.527845,0.9044968,0.010796637,-0.05585087,-0.29123288,3.2328396,-41.518074,-19.938078
1556489444751,-2.5366297,5.527845,0.9044968,0.2398465,-0.12829454,-0.06324838,3.2328396,-41.518074,-19.938078
1556489444763,-2.5366297,5.527845,0.9044968,0.2398465,-0.12829454,-0.06324838,1.8585854,-42.56888,-19.464174
1556489444763,-0.67804754,5.444017,0.8134838,0.2398465,-0.12829454,-0.06324838,1.8585854,-42.56888,-19.464174
1556489444771,-0.67804754,5.444017,0.8134838,0.31868222,-0.09367073,0.1993599,1.8585854,-42.56888,-19.464174
1556489444784,-0.67804754,5.444017,0.8134838,0.31868222,-0.09367073,0.1993599,2.5597878,-41.70217,-18.576426
1556489444783,1.3841163,5.0512233,0.8997067,0.31868222,-0.09367073,0.1993599,2.5597878,-41.70217,-18.576426
1556489444791,1.3841163,5.0512233,0.8997067,0.31814954,-0.05158948,0.15354994,2.5597878,-41.70217,-18.576426
1556489444804,1.3841163,5.0512233,0.8997067,0.31814954,-0.05158948,0.15354994,1.0571327,-41.992966,-19.508577
1556489444803,-0.874444,3.7866213,1.505662,0.31814954,-0.05158948,0.15354994,1.0571327,-41.992966,-19.508577
1556489444811,-0.874444,3.7866213,1.505662,0.36023083,0.026713606,-0.2598051,1.0571327,-41.992966,-19.508577
1556489444824,-0.874444,3.7866213,1.505662,0.36023083,0.026713606,-0.2598051,2.396696,-41.55864,-15.85037
1556489444823,-3.6359713,3.7842264,0.6578036,0.36023083,0.026713606,-0.2598051,2.396696,-41.55864,-15.85037
1556489444831,-3.6359713,3.7842264,0.6578036,0.516837,0.28825656,-0.4030944,2.396696,-41.55864,-15.85037
1556489444844,-3.6359713,3.7842264,0.6578036,0.516837,0.28825656,-0.4030944,2.1779232,-42.786644,-18.230886
1556489444843,-1.7175124,4.6967516,0.042268038,0.516837,0.28825656,-0.4030944,2.1779232,-42.786644,-18.230886
1556489444852,-1.7175124,4.6967516,0.042268038,0.4119002,0.513045,-0.08029395,2.1779232,-42.786644,-18.230886
1556489444864,-1.7175124,4.6967516,0.042268038,0.4119002,0.513045,-0.08029395,1.6775131,-42.8239,-17.024176
1556489444863,1.5541669,4.5769978,1.5823045,0.4119002,0.513045,-0.08029395,1.6775131,-42.8239,-17.024176
1556489444872,1.5541669,4.5769978,1.5823045,0.10614529,0.43154585,0.046482466,1.6775131,-42.8239,-17.024176
1556489444884,1.5541669,4.5769978,1.5823045,0.10614529,0.43154585,0.046482466,2.3673,-42.22866,-16.884245
1556489444883,-0.37866256,3.7698557,1.5607488,0.10614529,0.43154585,0.046482466,2.3673,-42.22866,-16.884245
1556489444892,-0.37866256,3.7698557,1.5607488,0.17965432,0.53275394,-0.3173339,2.3673,-42.22866,-16.884245
1556489444904,-0.37866256,3.7698557,1.5607488,0.17965432,0.53275394,-0.3173339,3.4023666,-41.339737,-17.054205
1556489444903,-2.1845527,4.584183,-1.0091721,0.17965432,0.53275394,-0.3173339,3.4023666,-41.339737,-17.054205
1556489444912,-2.1845527,4.584183,-1.0091721,0.21054943,0.7953622,-0.34290224,3.4023666,-41.339737,-17.054205
1556489444924,-2.1845527,4.584183,-1.0091721,0.21054943,0.7953622,-0.34290224,4.652958,-42.9076,-15.737925
1556489444932,-2.1845527,4.584183,-1.0091721,-0.30720976,0.58815205,0.08057361,4.652958,-42.9076,-15.737925
1556489444923,-0.6972081,5.9086623,-0.51099545,-0.30720976,0.58815205,0.08057361,4.652958,-42.9076,-15.737925
1556489444944,-0.6972081,5.9086623,-0.51099545,-0.30720976,0.58815205,0.08057361,5.7926617,-43.31218,-15.085819
1556489444943,-1.3103486,6.2176275,2.2696927,-0.30720976,0.58815205,0.08057361,5.7926617,-43.31218,-15.085819
1556489444952,-1.3103486,6.2176275,2.2696927,-0.80046594,0.4949341,0.21054608,5.7926617,-43.31218,-15.085819
1556489444964,-1.3103486,6.2176275,2.2696927,-0.80046594,0.4949341,0.21054608,6.521055,-41.946617,-16.956778
1556489444972,-1.3103486,6.2176275,2.2696927,-0.7296203,0.9264,0.24836592,6.521055,-41.946617,-16.956778
1556489444964,-3.9736776,7.458279,1.0649672,-0.7296203,0.9264,0.24836592,6.521055,-41.946617,-16.956778
1556489444984,-3.9736776,7.458279,1.0649672,-0.7296203,0.9264,0.24836592,7.051484,-41.245644,-17.737371
1556489444984,-2.4192708,9.333626,-0.12059739,-0.7296203,0.9264,0.24836592,7.051484,-41.245644,-17.737371
1556489444992,-2.4192708,9.333626,-0.12059739,-0.8276323,1.0057685,0.9147413,7.051484,-41.245644,-17.737371
1556489445004,-2.4192708,9.333626,-0.12059739,-0.8276323,1.0057685,0.9147413,3.9895859,-42.99611,-17.876852
1556489445004,2.7948184,10.808996,2.6553004,-0.8276323,1.0057685,0.9147413,3.9895859,-42.99611,-17.876852
1556489445012,2.7948184,10.808996,2.6553004,-1.2921242,0.45285285,1.7015007,3.9895859,-42.99611,-17.876852
1556489445024,2.7948184,10.808996,2.6553004,-1.2921242,0.45285285,1.7015007,4.367689,-42.067055,-20.495562
1556489445032,2.7948184,10.808996,2.6553004,-1.4189007,0.40011814,1.5454272,4.367689,-42.067055,-20.495562
1556489445023,4.6462154,12.435256,5.287493,-1.4189007,0.40011814,1.5454272,4.367689,-42.067055,-20.495562
1556489445044,4.6462154,12.435256,5.287493,-1.4189007,0.40011814,1.5454272,4.053673,-41.70961,-20.975088
1556489445043,2.785238,13.651956,4.2168927,-1.4189007,0.40011814,1.5454272,4.053673,-41.70961,-20.975088
1556489445052,2.785238,13.651956,4.2168927,-1.1903836,1.1703649,0.90195704,4.053673,-41.70961,-20.975088
1556489445064,2.785238,13.651956,4.2168927,-1.1903836,1.1703649,0.90195704,4.763773,-40.73945,-22.828215
1556489445064,3.6187258,13.968106,3.24449,-1.1903836,1.1703649,0.90195704,4.763773,-40.73945,-22.828215
1556489445072,3.6187258,13.968106,3.24449,-1.063607,1.1895411,0.9174046,4.763773,-40.73945,-22.828215
1556489445084,3.6187258,13.968106,3.24449,-1.063607,1.1895411,0.9174046,2.2113667,-42.15757,-21.147474
1556489445084,4.4689794,14.722556,5.2252207,-1.063607,1.1895411,0.9174046,2.2113667,-42.15757,-21.147474
1556489445092,4.4689794,14.722556,5.2252207,-1.0183297,0.62543917,1.047377,2.2113667,-42.15757,-21.147474
1556489445104,4.4689794,14.722556,5.2252207,-1.0183297,0.62543917,1.047377,1.8601418,-42.584625,-20.983583
1556489445104,1.1470034,15.414734,3.9678042,-1.0183297,0.62543917,1.047377,1.8601418,-42.584625,-20.983583
1556489445112,1.1470034,15.414734,3.9678042,-0.7653095,0.9887229,0.7341647,1.8601418,-42.584625,-20.983583
1556489445124,1.1470034,15.414734,3.9678042,-0.7653095,0.9887229,0.7341647,-0.04819107,-40.968758,-23.988913
1556489445132,1.1470034,15.414734,3.9678042,-0.54478234,1.0174873,1.0495077,-0.04819107,-40.968758,-23.988913
1556489445124,1.6308095,15.505747,2.382261,-0.54478234,1.0174873,1.0495077,-0.04819107,-40.968758,-23.988913
1556489445144,1.6308095,15.505747,2.382261,-0.54478234,1.0174873,1.0495077,-0.5665817,-41.404556,-23.068258
1556489445144,6.89759,15.59676,2.5786576,-0.54478234,1.0174873,1.0495077,-0.5665817,-41.404556,-23.068258
1556489445153,6.89759,15.59676,2.5786576,-0.55383784,0.5854887,1.5342411,-0.5665817,-41.404556,-23.068258
1556489445164,6.89759,15.59676,2.5786576,-0.55383784,0.5854887,1.5342411,-1.9308186,-42.169716,-20.479067
1556489445165,9.879465,15.560834,4.219287,-0.55383784,0.5854887,1.5342411,-1.9308186,-42.169716,-20.479067
1556489445173,9.879465,15.560834,4.219287,-0.6997905,0.23285845,1.2364763,-1.9308186,-42.169716,-20.479067
1556489445184,9.879465,15.560834,4.219287,-0.6997905,0.23285845,1.2364763,-2.1446323,-39.730263,-23.636656
1556489445184,5.9946456,14.569271,3.7666173,-0.6997905,0.23285845,1.2364763,-2.1446323,-39.730263,-23.636656
1556489445193,5.9946456,14.569271,3.7666173,-0.51655066,0.49120542,0.23984315,-2.1446323,-39.730263,-23.636656
1556489445204,5.9946456,14.569271,3.7666173,-0.51655066,0.49120542,0.23984315,-2.1758976,-40.381386,-22.847242
1556489445205,1.8367865,13.970501,1.8266026,-0.51655066,0.49120542,0.23984315,-2.1758976,-40.381386,-22.847242
1556489445213,1.8367865,13.970501,1.8266026,-0.26459584,0.8033523,-0.28643882,-2.1758976,-40.381386,-22.847242
1556489445224,1.8367865,13.970501,1.8266026,-0.26459584,0.8033523,-0.28643882,-1.1816425,-40.433952,-24.798899
1556489445224,2.126591,14.013612,0.9643738,-0.26459584,0.8033523,-0.28643882,-1.1816425,-40.433952,-24.798899
1556489445233,2.126591,14.013612,0.9643738,-0.2406255,0.63715804,0.029436901,-1.1816425,-40.433952,-24.798899
1556489445244,2.126591,14.013612,0.9643738,-0.2406255,0.63715804,0.029436901,-2.8150349,-39.941124,-24.857996
1556489445244,4.286953,13.905834,2.8014002,-0.2406255,0.63715804,0.029436901,-2.8150349,-39.941124,-24.857996
1556489445253,4.286953,13.905834,2.8014002,-0.3370395,0.19130987,0.44865134,-2.8150349,-39.941124,-24.857996
1556489445264,4.286953,13.905834,2.8014002,-0.3370395,0.19130987,0.44865134,-1.6510963,-39.816933,-24.077719
1556489445265,5.3336034,12.7250595,3.7426665,-0.3370395,0.19130987,0.44865134,-1.6510963,-39.816933,-24.077719
1556489445273,5.3336034,12.7250595,3.7426665,-0.2060017,0.07838299,0.40017805,-1.6510963,-39.816933,-24.077719
1556489445284,5.3336034,12.7250595,3.7426665,-0.2060017,0.07838299,0.40017805,-2.1233807,-39.364777,-26.541357
1556489445285,4.725253,11.659247,2.169099,-0.2060017,0.07838299,0.40017805,-2.1233807,-39.364777,-26.541357
1556489445293,4.725253,11.659247,2.169099,0.04275708,0.3058348,0.0012051745,-2.1233807,-39.364777,-26.541357
1556489445304,4.725253,11.659247,2.169099,0.04275708,0.3058348,0.0012051745,-3.9800606,-40.05429,-24.574682
1556489445305,3.740875,10.950306,1.0625722,0.04275708,0.3058348,0.0012051745,-3.9800606,-40.05429,-24.574682
1556489445313,3.740875,10.950306,1.0625722,0.056073934,0.35430813,-0.2800467,-3.9800606,-40.05429,-24.574682
1556489445324,3.740875,10.950306,1.0625722,0.056073934,0.35430813,-0.2800467,-2.958744,-39.413223,-23.21335
1556489445333,3.740875,10.950306,1.0625722,-0.056852963,0.1827871,-0.32212797,-2.958744,-39.413223,-23.21335
1556489445325,2.9169674,10.861688,1.179931,-0.056852963,0.1827871,-0.32212797,-2.958744,-39.413223,-23.21335
1556489445344,2.9169674,10.861688,1.179931,-0.056852963,0.1827871,-0.32212797,-1.1617947,-40.054306,-26.336134
1556489445344,1.700267,10.375486,1.5559585,-0.056852963,0.1827871,-0.32212797,-1.1617947,-40.054306,-26.336134
1556489445354,1.700267,10.375486,1.5559585,-0.18416207,0.16733956,-0.23210607,-1.1617947,-40.054306,-26.336134
1556489445364,1.700267,10.375486,1.5559585,-0.18416207,0.16733956,-0.23210607,-2.1854439,-40.671753,-25.418352
1556489445373,1.700267,10.375486,1.5559585,-0.23742945,-0.03028252,0.13171032,-2.1854439,-40.671753,-25.418352
1556489445365,3.2714393,10.104841,2.255322,-0.23742945,-0.03028252,0.13171032,-2.1854439,-40.671753,-25.418352
1556489445384,3.2714393,10.104841,2.255322,-0.23742945,-0.03028252,0.13171032,-0.7871132,-39.0906,-25.612143
1556489445385,5.6521487,10.456918,3.1319213,-0.23742945,-0.03028252,0.13171032,-0.7871132,-39.0906,-25.612143
1556489445394,5.6521487,10.456918,3.1319213,-0.23423342,-0.2545383,0.29470858,-0.7871132,-39.0906,-25.612143
1556489445404,5.6521487,10.456918,3.1319213,-0.23423342,-0.2545383,0.29470858,-1.5877876,-38.52256,-26.41625
1556489445405,5.2330103,10.138373,3.9199026,-0.23423342,-0.2545383,0.29470858,-1.5877876,-38.52256,-26.41625
1556489445414,5.2330103,10.138373,3.9199026,-0.20546901,-0.2854334,0.042221077,-1.5877876,-38.52256,-26.41625
1556489445424,5.2330103,10.138373,3.9199026,-0.20546901,-0.2854334,0.042221077,-2.651785,-40.086227,-27.73599
1556489445426,4.1025324,9.453381,3.8767912,-0.20546901,-0.2854334,0.042221077,-2.651785,-40.086227,-27.73599
1556489445434,4.1025324,9.453381,3.8767912,-0.09414016,-0.20606495,-0.27312195,-2.651785,-40.086227,-27.73599
1556489445444,4.1025324,9.453381,3.8767912,-0.09414016,-0.20606495,-0.27312195,-1.6781597,-40.510567,-27.39071
1556489445445,3.0343263,9.048611,2.9187589,-0.09414016,-0.20606495,-0.27312195,-1.6781597,-40.510567,-27.39071
1556489445454,3.0343263,9.048611,2.9187589,-0.007846954,-0.07822318,-0.5080312,-1.6781597,-40.510567,-27.39071
1556489445464,3.0343263,9.048611,2.9187589,-0.007846954,-0.07822318,-0.5080312,-1.77841,-39.067947,-26.547361
1556489445465,2.3445435,8.861795,2.408607,-0.007846954,-0.07822318,-0.5080312,-1.77841,-39.067947,-26.547361
1556489445475,2.3445435,8.861795,2.408607,-0.04087275,-0.14534011,-0.5362629,-1.77841,-39.067947,-26.547361
1556489445484,2.3445435,8.861795,2.408607,-0.04087275,-0.14534011,-0.5362629,-1.7906036,-39.331543,-26.535479
1556489445486,1.7912799,8.737252,2.9379196,-0.04087275,-0.14534011,-0.5362629,-1.7906036,-39.331543,-26.535479
1556489445494,1.7912799,8.737252,2.9379196,-0.13728674,-0.281172,-0.44357765,-1.7906036,-39.331543,-26.535479
1556489445504,1.7912799,8.737252,2.9379196,-0.13728674,-0.281172,-0.44357765,-0.7860241,-39.101616,-26.67573
1556489445505,1.4152523,8.536064,3.5199242,-0.13728674,-0.281172,-0.44357765,-0.7860241,-39.101616,-26.67573
1556489445515,1.4152523,8.536064,3.5199242,-0.15486498,-0.30354434,-0.31946456,-0.7860241,-39.101616,-26.67573
1556489445524,1.4152523,8.536064,3.5199242,-0.15486498,-0.30354434,-0.31946456,-0.75429153,-38.455223,-27.920965
1556489445534,1.4152523,8.536064,3.5199242,-0.10159759,-0.21245706,-0.18736145,-0.75429153,-38.455223,-27.920965
1556489445525,2.361309,8.83545,3.3977752,-0.10159759,-0.21245706,-0.18736145,-0.75429153,-38.455223,-27.920965
1556489445544,2.361309,8.83545,3.3977752,-0.10159759,-0.21245706,-0.18736145,0.53335,-39.237015,-27.096159
1556489445554,2.361309,8.83545,3.3977752,-0.11917582,-0.1783659,-0.12983266,0.53335,-39.237015,-27.096159
1556489445546,3.539688,9.062983,3.5031586,-0.11917582,-0.1783659,-0.12983266,0.53335,-39.237015,-27.096159
1556489445564,3.539688,9.062983,3.5031586,-0.11917582,-0.1783659,-0.12983266,1.0490952,-38.774445,-25.433817
1556489445566,4.871353,9.307281,3.579801,-0.11917582,-0.1783659,-0.12983266,1.0490952,-38.774445,-25.433817
1556489445575,4.871353,9.307281,3.579801,-0.12716593,-0.2992829,-0.10799301,1.0490952,-38.774445,-25.433817
1556489445584,4.871353,9.307281,3.579801,-0.12716593,-0.2992829,-0.10799301,-0.4277687,-38.552216,-27.757204
1556489445586,6.291635,9.285725,3.7115307,-0.12716593,-0.2992829,-0.10799301,-0.4277687,-38.552216,-27.757204
1556489445594,6.291635,9.285725,3.7115307,-0.0930748,-0.4068831,-0.19908029,-0.4277687,-38.552216,-27.757204
1556489445604,6.291635,9.285725,3.7115307,-0.0930748,-0.4068831,-0.19908029,-2.8623028,-37.486618,-28.164587
1556489445606,7.6640162,8.739646,2.731943,-0.0930748,-0.4068831,-0.19908029,-2.8623028,-37.486618,-28.164587
1556489445615,7.6640162,8.739646,2.731943,0.02304814,-0.3839781,-0.42813012,-2.8623028,-37.486618,-28.164587
1556489445624,7.6640162,8.739646,2.731943,0.02304814,-0.3839781,-0.42813012,0.7483635,-38.16443,-26.988813
1556489445626,8.150218,8.749227,1.59907,0.02304814,-0.3839781,-0.42813012,0.7483635,-38.16443,-26.988813
1556489445635,8.150218,8.749227,1.59907,0.010263964,-0.47826138,-0.72642756,0.7483635,-38.16443,-26.988813
1556489445644,8.150218,8.749227,1.59907,0.010263964,-0.47826138,-0.72642756,2.3817558,-38.657257,-26.929716
1556489445646,6.054522,8.574386,2.4612987,0.010263964,-0.47826138,-0.72642756,2.3817558,-38.657257,-26.929716
1556489445655,6.054522,8.574386,2.4612987,-0.26512852,-0.6902657,-0.9751863,2.3817558,-38.657257,-26.929716
1556489445664,6.054522,8.574386,2.4612987,-0.26512852,-0.6902657,-0.9751863,1.2418957,-38.25109,-27.429876
1556489445666,4.8042903,8.327693,3.5989618,-0.26512852,-0.6902657,-0.9751863,1.2418957,-38.25109,-27.429876
1556489445675,4.8042903,8.327693,3.5989618,-0.4073525,-0.807454,-0.90221,1.2418957,-38.25109,-27.429876
1556489445684,4.8042903,8.327693,3.5989618,-0.4073525,-0.807454,-0.90221,1.5806141,-38.084488,-27.277998
1556489445686,4.5264616,8.150456,3.907927,-0.4073525,-0.807454,-0.90221,1.5806141,-38.084488,-27.277998
1556489445695,4.5264616,8.150456,3.907927,-0.2539424,-0.87297285,-0.64812446,1.5806141,-38.084488,-27.277998
1556489445704,4.5264616,8.150456,3.907927,-0.2539424,-0.87297285,-0.64812446,0.6194916,-37.399696,-27.939047
1556489445707,5.122836,8.028308,3.5055537,-0.2539424,-0.87297285,-0.64812446,0.6194916,-37.399696,-27.939047
1556489445715,5.122836,8.028308,3.5055537,0.021982793,-0.99388987,-0.372732,0.6194916,-37.399696,-27.939047
1556489445724,5.122836,8.028308,3.5055537,0.021982793,-0.99388987,-0.372732,-0.2227745,-37.765266,-29.76515
1556489445726,6.049732,8.320508,2.4541137,0.021982793,-0.99388987,-0.372732,-0.2227745,-37.765266,-29.76515
1556489445736,6.049732,8.320508,2.4541137,0.15568398,-1.1185356,-0.20760307,-0.2227745,-37.765266,-29.76515
1556489445744,6.049732,8.320508,2.4541137,0.15568398,-1.1185356,-0.20760307,0.121418,-37.460564,-29.01145
1556489445747,5.8437552,8.492953,2.224186,0.15568398,-1.1185356,-0.20760307,0.121418,-37.460564,-29.01145
1556489445755,5.8437552,8.492953,2.224186,-0.028621241,-1.2474426,-0.23903082,0.121418,-37.460564,-29.01145
1556489445764,5.8437552,8.492953,2.224186,-0.028621241,-1.2474426,-0.23903082,-1.1554317,-36.40101,-28.480673
1556489445776,5.8437552,8.492953,2.224186,-0.32265732,-1.3880687,-0.35089236,-1.1554317,-36.40101,-28.480673
1556489445766,4.610289,8.672584,3.0936,-0.32265732,-1.3880687,-0.35089236,-1.1554317,-36.40101,-28.480673
1556489445784,4.610289,8.672584,3.0936,-0.32265732,-1.3880687,-0.35089236,-3.4765873,-36.523888,-30.654932
1556489445786,3.9013455,8.667794,4.0875583,-0.32265732,-1.3880687,-0.35089236,-3.4765873,-36.523888,-30.654932
1556489445796,3.9013455,8.667794,4.0875583,-0.44730306,-1.5500016,-0.37113398,-3.4765873,-36.523888,-30.654932
1556489445804,3.9013455,8.667794,4.0875583,-0.44730306,-1.5500016,-0.37113398,-1.1210537,-35.78138,-32.308907
1556489445806,3.767221,8.97676,4.5162773,-0.44730306,-1.5500016,-0.37113398,-1.1210537,-35.78138,-32.308907
1556489445816,3.767221,8.97676,4.5162773,-0.4435743,-1.5888867,-0.44144696,-1.1210537,-35.78138,-32.308907
1556489445824,3.767221,8.97676,4.5162773,-0.4435743,-1.5888867,-0.44144696,-3.8220215,-36.815994,-30.193102
1556489445827,0.8907299,8.969574,4.8659587,-0.4435743,-1.5888867,-0.44144696,-3.8220215,-36.815994,-30.193102
1556489445836,0.8907299,8.969574,4.8659587,-0.43398622,-1.6304352,-0.616164,-3.8220215,-36.815994,-30.193102
1556489445844,0.8907299,8.969574,4.8659587,-0.43398622,-1.6304352,-0.616164,-2.8158875,-36.60182,-31.852762
1556489445847,-1.7270926,8.797128,5.3282094,-0.43398622,-1.6304352,-0.616164,-2.8158875,-36.60182,-31.852762
1556489445856,-1.7270926,8.797128,5.3282094,-0.38977423,-1.8296554,-0.46488464,-2.8158875,-36.60182,-31.852762
1556489445864,-1.7270926,8.797128,5.3282094,-0.38977423,-1.8296554,-0.46488464,-3.3039436,-36.377045,-30.809874
1556489445867,-0.9151604,9.769531,5.373716,-0.38977423,-1.8296554,-0.46488464,-3.3039436,-36.377045,-30.809874
1556489445876,-0.9151604,9.769531,5.373716,-0.3604772,-1.8759981,-0.13942079,-3.3039436,-36.377045,-30.809874
1556489445884,-0.9151604,9.769531,5.373716,-0.3604772,-1.8759981,-0.13942079,-4.7717266,-35.859726,-30.106329
1556489445887,-0.65409666,9.752766,5.570112,-0.3604772,-1.8759981,-0.13942079,-4.7717266,-35.859726,-30.106329
1556489445896,-0.65409666,9.752766,5.570112,-0.3855129,-1.7183266,-0.15593368,-4.7717266,-35.859726,-30.106329
1556489445904,-0.65409666,9.752766,5.570112,-0.3855129,-1.7183266,-0.15593368,-6.3868275,-34.971504,-30.183249
1556489445908,-2.1582072,9.73121,4.820452,-0.3855129,-1.7183266,-0.15593368,-6.3868275,-34.971504,-30.183249
1556489445916,-2.1582072,9.73121,4.820452,-0.30720976,-1.4567837,-0.34556565,-6.3868275,-34.971504,-30.183249
1556489445924,-2.1582072,9.73121,4.820452,-0.30720976,-1.4567837,-0.34556565,-7.2664566,-36.120003,-31.213999
1556489445936,-2.1582072,9.73121,4.820452,-0.2800434,-1.3118962,-0.32106262,-7.2664566,-36.120003,-31.213999
1556489445927,-2.9892995,9.810246,3.9869645,-0.2800434,-1.3118962,-0.32106262,-7.2664566,-36.120003,-31.213999
1556489445944,-2.9892995,9.810246,3.9869645,-0.2800434,-1.3118962,-0.32106262,-7.549988,-35.10357,-31.723234
1556489445948,-2.1749725,10.183879,4.027681,-0.2800434,-1.3118962,-0.32106262,-7.549988,-35.10357,-31.723234
1556489445956,-2.1749725,10.183879,4.027681,-0.3865782,-1.3161576,-0.14900891,-7.549988,-35.10357,-31.723234
1556489445964,-2.1749725,10.183879,4.027681,-0.3865782,-1.3161576,-0.14900891,-7.349039,-34.27569,-29.780714
1556489445977,-2.1749725,10.183879,4.027681,-0.5831349,-1.1632801,-0.1617931,-7.349039,-34.27569,-29.780714
1556489445967,-1.6983516,9.989879,4.717464,-0.5831349,-1.1632801,-0.1617931,-7.349039,-34.27569,-29.780714
1556489445984,-1.6983516,9.989879,4.717464,-0.5831349,-1.1632801,-0.1617931,-8.560352,-35.468445,-31.880922
1556489445988,-2.3162823,9.336021,5.5293965,-0.5831349,-1.1632801,-0.1617931,-8.560352,-35.468445,-31.880922
1556489445996,-2.3162823,9.336021,5.5293965,-0.6720914,-0.9507433,-0.30881113,-8.560352,-35.468445,-31.880922
1556489446004,-2.3162823,9.336021,5.5293965,-0.6720914,-0.9507433,-0.30881113,-9.010738,-34.463898,-31.937273
1556489446008,-2.7018902,8.897721,5.5844827,-0.6720914,-0.9507433,-0.30881113,-9.010738,-34.463898,-31.937273
1556489446017,-2.7018902,8.897721,5.5844827,-0.591125,-0.69932115,-0.40895385,-9.010738,-34.463898,-31.937273
1556489446024,-2.7018902,8.897721,5.5844827,-0.591125,-0.69932115,-0.40895385,-7.506527,-34.188843,-32.52453
1556489446028,-2.9174473,8.876165,5.112652,-0.591125,-0.69932115,-0.40895385,-7.506527,-34.188843,-32.52453
1556489446036,-2.9174473,8.876165,5.112652,-0.43292084,-0.5778715,-0.36474186,-7.506527,-34.188843,-32.52453
1556489446044,-2.9174473,8.876165,5.112652,-0.43292084,-0.5778715,-0.36474186,-7.075056,-35.58249,-31.842588
1556489446048,-4.2826433,8.658214,5.3282094,-0.43292084,-0.5778715,-0.36474186,-7.075056,-35.58249,-31.842588
1556489446056,-4.2826433,8.658214,5.3282094,-0.31360185,-0.67002404,-0.15113962,-7.075056,-35.58249,-31.842588
1556489446064,-4.2826433,8.658214,5.3282094,-0.31360185,-0.67002404,-0.15113962,-9.842213,-34.551704,-32.40779
1556489446068,-3.3150306,9.003105,5.5389767,-0.31360185,-0.67002404,-0.15113962,-9.842213,-34.551704,-32.40779
1556489446076,-3.3150306,9.003105,5.5389767,-0.13462338,-0.77709156,0.24197382,-9.842213,-34.551704,-32.40779
1556489446084,-3.3150306,9.003105,5.5389767,-0.13462338,-0.77709156,0.24197382,-8.166603,-34.117218,-31.934462
1556489446089,-1.34867,9.343205,5.105467,-0.13462338,-0.77709156,0.24197382,-8.166603,-34.117218,-31.934462
1556489446097,-1.34867,9.343205,5.105467,0.006535245,-0.61728936,0.4262791,-8.166603,-34.117218,-31.934462
1556489446104,-1.34867,9.343205,5.105467,0.006535245,-0.61728936,0.4262791,-9.313026,-33.838135,-31.97286
1556489446109,-0.01700544,9.479726,4.6599817,0.006535245,-0.61728936,0.4262791,-9.313026,-33.838135,-31.97286
1556489446117,-0.01700544,9.479726,4.6599817,0.06246602,-0.42819005,0.34264925,-9.313026,-33.838135,-31.97286
1556489446124,-0.01700544,9.479726,4.6599817,0.06246602,-0.42819005,0.34264925,-9.713028,-35.319588,-31.761438
1556489446128,0.3494418,9.654567,4.1306696,0.06246602,-0.42819005,0.34264925,-9.713028,-35.319588,-31.761438
1556489446137,0.3494418,9.654567,4.1306696,0.09708984,-0.27424723,0.13490635,-9.713028,-35.319588,-31.761438
1556489446144,0.3494418,9.654567,4.1306696,0.09708984,-0.27424723,0.13490635,-12.060753,-35.947617,-31.784758
1556489446148,0.8667791,10.140767,3.6085422,0.09708984,-0.27424723,0.13490635,-12.060753,-35.947617,-31.784758
1556489446157,0.8667791,10.140767,3.6085422,0.09495914,-0.104324214,-0.05738897,-12.060753,-35.947617,-31.784758
1556489446164,0.8667791,10.140767,3.6085422,0.09495914,-0.104324214,-0.05738897,-10.322926,-34.207733,-32.586372
1556489446177,0.8667791,10.140767,3.6085422,0.037963014,0.045357194,-0.26300117,-10.322926,-34.207733,-32.586372
1556489446168,0.85480374,10.361116,3.4360967,0.037963014,0.045357194,-0.26300117,-10.322926,-34.207733,-32.586372
1556489446184,0.85480374,10.361116,3.4360967,0.037963014,0.045357194,-0.26300117,-10.193745,-34.975616,-31.94002
1556489446188,-0.12478404,11.08922,3.4384913,0.037963014,0.045357194,-0.26300117,-10.193745,-34.975616,-31.94002
1556489446197,-0.12478404,11.08922,3.4384913,0.009731289,0.041628476,-0.38232014,-10.193745,-34.975616,-31.94002
1556489446204,-0.12478404,11.08922,3.4384913,0.009731289,0.041628476,-0.38232014,-10.074425,-36.030716,-33.560898
1556489446209,-0.424169,11.307172,3.9222975,0.009731289,0.041628476,-0.38232014,-10.074425,-36.030716,-33.560898
1556489446217,-0.424169,11.307172,3.9222975,0.009198615,0.028844297,-0.30614775,-10.074425,-36.030716,-33.560898
1556489446224,-0.424169,11.307172,3.9222975,0.009198615,0.028844297,-0.30614775,-10.002033,-34.441246,-32.872498
1556489446228,0.3590221,11.956238,3.7929633,0.009198615,0.028844297,-0.30614775,-10.002033,-34.441246,-32.872498
1556489446238,0.3590221,11.956238,3.7929633,0.16527213,0.046955217,-0.14794357,-10.002033,-34.441246,-32.872498
1556489446244,0.3590221,11.956238,3.7929633,0.16527213,0.046955217,-0.14794357,-10.002811,-34.433372,-32.112793
1556489446249,0.505122,12.531057,3.1151557,0.16527213,0.046955217,-0.14794357,-10.002811,-34.433372,-32.112793
1556489446258,0.505122,12.531057,3.1151557,0.36236152,0.04908591,-0.07123849,-10.002811,-34.433372,-32.112793
1556489446264,0.505122,12.531057,3.1151557,0.36236152,0.04908591,-0.07123849,-7.908865,-35.646675,-30.033995
1556489446269,0.6967284,13.687881,2.0732958,0.36236152,0.04908591,-0.07123849,-7.908865,-35.646675,-30.033995
1556489446278,0.6967284,13.687881,2.0732958,0.515239,-0.07982121,0.03849236,-7.908865,-35.646675,-30.033995
1556489446284,0.6967284,13.687881,2.0732958,0.515239,-0.07982121,0.03849236,-9.659245,-34.122368,-30.751326
1556489446289,2.241555,15.225523,1.572724,0.515239,-0.07982121,0.03849236,-9.659245,-34.122368,-30.751326
1556489446298,2.241555,15.225523,1.572724,0.493932,-0.11124898,0.09868453,-9.659245,-34.122368,-30.751326
1556489446304,2.241555,15.225523,1.572724,0.493932,-0.11124898,0.09868453,-11.760021,-36.557632,-30.229757
1556489446309,2.7014103,16.05422,1.924801,0.493932,-0.11124898,0.09868453,-11.760021,-36.557632,-30.229757
1556489446318,2.7014103,16.05422,1.924801,0.30643073,0.03949778,-0.08988209,-11.760021,-36.557632,-30.229757
1556489446324,2.7014103,16.05422,1.924801,0.30643073,0.03949778,-0.08988209,-9.090782,-36.16942,-31.100325
1556489446338,2.7014103,16.05422,1.924801,0.16473944,0.09063449,-0.29602695,-9.090782,-36.16942,-31.100325
1556489446329,1.9397749,16.19074,3.3762195,0.16473944,0.09063449,-0.29602695,-9.090782,-36.16942,-31.100325
1556489446344,1.9397749,16.19074,3.3762195,0.16473944,0.09063449,-0.29602695,-10.282066,-36.790886,-28.969961
1556489446349,1.6619455,15.953628,4.475561,0.16473944,0.09063449,-0.29602695,-10.282066,-36.790886,-28.969961
1556489446358,1.6619455,15.953628,4.475561,0.23345439,0.104484014,-0.33437946,-10.282066,-36.790886,-28.969961
1556489446364,1.6619455,15.953628,4.475561,0.23345439,0.104484014,-0.33437946,-8.303394,-36.99003,-29.22075
1556489446369,2.2295794,15.8218975,5.2994685,0.23345439,0.104484014,-0.33437946,-8.303394,-36.99003,-29.22075
1556489446378,2.2295794,15.8218975,5.2994685,0.49819335,-0.015367647,-0.28537345,-8.303394,-36.99003,-29.22075
1556489446384,2.2295794,15.8218975,5.2994685,0.49819335,-0.015367647,-0.28537345,-10.096455,-36.388313,-29.89649
1556489446389,2.4140007,15.848243,4.8899097,0.49819335,-0.015367647,-0.28537345,-10.096455,-36.388313,-29.89649
1556489446398,2.4140007,15.848243,4.8899097,0.86254245,-0.037739955,-0.3807221,-10.096455,-36.388313,-29.89649
1556489446404,2.4140007,15.848243,4.8899097,0.86254245,-0.037739955,-0.3807221,-9.309532,-37.20421,-27.56109
1556489446409,2.0523434,15.759625,3.816914,0.86254245,-0.037739955,-0.3807221,-9.309532,-37.20421,-27.56109
1556489446418,2.0523434,15.759625,3.816914,1.0505762,0.069860205,-0.59059566,-9.309532,-37.20421,-27.56109
1556489446424,2.0523434,15.759625,3.816914,1.0505762,0.069860205,-0.59059566,-10.505512,-37.97165,-26.792246
1556489446429,0.9146807,14.930928,3.6420732,1.0505762,0.069860205,-0.59059566,-10.505512,-37.97165,-26.792246
1556489446439,0.9146807,14.930928,3.6420732,0.9706753,0.12951969,-0.74720186,-10.505512,-37.97165,-26.792246
1556489446444,0.9146807,14.930928,3.6420732,0.9706753,0.12951969,-0.74720186,-8.40736,-39.22747,-28.815859
1556489446450,-0.3116003,13.299878,4.353412,0.9706753,0.12951969,-0.74720186,-8.40736,-39.22747,-28.815859
1556489446459,-0.3116003,13.299878,4.353412,0.8662712,0.120996915,-0.74773455,-8.40736,-39.22747,-28.815859
1556489446464,-0.3116003,13.299878,4.353412,0.8662712,0.120996915,-0.74773455,-7.447794,-39.896515,-26.6354
1556489446470,-0.69241804,11.951449,3.5654309,0.8662712,0.120996915,-0.74773455,-7.447794,-39.896515,-26.6354
1556489446478,-0.69241804,11.951449,3.5654309,0.9126138,0.18758115,-0.5969877,-7.447794,-39.896515,-26.6354
1556489446484,-0.69241804,11.951449,3.5654309,0.9126138,0.18758115,-0.5969877,-7.5663395,-38.849297,-25.77423
1556489446490,-0.17268565,11.654459,4.0947433,0.9126138,0.18758115,-0.5969877,-7.5663395,-38.849297,-25.77423
1556489446499,-0.17268565,11.654459,4.0947433,0.81353647,0.11353948,-0.3796568,-7.5663395,-38.849297,-25.77423
1556489446504,-0.17268565,11.654459,4.0947433,0.81353647,0.11353948,-0.3796568,-7.7516403,-39.255005,-25.151575
1556489446510,0.49554166,10.78744,4.870749,0.81353647,0.11353948,-0.3796568,-7.7516403,-39.255005,-25.151575
1556489446519,0.49554166,10.78744,4.870749,0.73683137,0.111941464,-0.23690014,-7.7516403,-39.255005,-25.151575
1556489446524,0.49554166,10.78744,4.870749,0.73683137,0.111941464,-0.23690014,-8.090981,-39.41532,-24.695688
1556489446539,0.49554166,10.78744,4.870749,0.93232274,0.07199089,-0.12397322,-8.090981,-39.41532,-24.695688
1556489446530,1.4320179,9.415058,4.5545983,0.93232274,0.07199089,-0.12397322,-8.090981,-39.41532,-24.695688
1556489446544,1.4320179,9.415058,4.5545983,0.93232274,0.07199089,-0.12397322,-6.636015,-40.18994,-24.779589
1556489446550,1.2978934,7.9492707,1.6421814,0.93232274,0.07199089,-0.12397322,-6.636015,-40.18994,-24.779589
1556489446559,1.2978934,7.9492707,1.6421814,1.2492638,0.05867405,-0.09520882,-6.636015,-40.18994,-24.779589
1556489446564,1.2978934,7.9492707,1.6421814,1.2492638,0.05867405,-0.09520882,-7.3223495,-40.62661,-22.342463
1556489446579,1.2978934,7.9492707,1.6421814,1.0724158,0.073588915,-0.07123849,-7.3223495,-40.62661,-22.342463
1556489446570,1.2907082,7.966036,-1.6510534,1.0724158,0.073588915,-0.07123849,-7.3223495,-40.62661,-22.342463
1556489446584,1.2907082,7.966036,-1.6510534,1.0724158,0.073588915,-0.07123849,-6.9284,-42.801598,-20.713228
1556489446590,2.8091888,7.1325483,0.7368412,1.0724158,0.073588915,-0.07123849,-6.9284,-42.801598,-20.713228
1556489446599,2.8091888,7.1325483,0.7368412,0.25422865,-0.14054605,-0.05738897,-6.9284,-42.801598,-20.713228
1556489446604,2.8091888,7.1325483,0.7368412,0.25422865,-0.14054605,-0.05738897,-8.436995,-43.22577,-21.791384
1556489446610,2.8666708,5.3673744,2.8636723,0.25422865,-0.14054605,-0.05738897,-8.436995,-43.22577,-21.791384
1556489446619,2.8666708,5.3673744,2.8636723,-0.096803516,-0.31686115,-0.2049397,-8.436995,-43.22577,-21.791384
1556489446624,2.8666708,5.3673744,2.8636723,-0.096803516,-0.31686115,-0.2049397,-6.3915615,-41.971977,-21.803652
1556489446630,1.7481685,3.9063754,3.146292,-0.096803516,-0.31686115,-0.2049397,-6.3915615,-41.971977,-21.803652
1556489446639,1.7481685,3.9063754,3.146292,0.05074719,-0.34083146,-0.37006864,-6.3915615,-41.971977,-21.803652
1556489446644,1.7481685,3.9063754,3.146292,0.05074719,-0.34083146,-0.37006864,-6.8524284,-41.248352,-23.519464
1556489446650,1.1134722,4.1722293,1.1296345,0.05074719,-0.34083146,-0.37006864,-6.8524284,-41.248352,-23.519464
1556489446660,1.1134722,4.1722293,1.1296345,0.2270623,-0.077690504,-0.46009058,-6.8524284,-41.248352,-23.519464
1556489446664,1.1134722,4.1722293,1.1296345,0.2270623,-0.077690504,-0.46009058,-5.86191,-41.26313,-21.824545
1556489446670,1.3362147,4.517121,1.4601554,0.2270623,-0.077690504,-0.46009058,-5.86191,-41.26313,-21.824545
1556489446680,1.3362147,4.517121,1.4601554,0.03476697,0.030442324,-0.54957974,-5.86191,-41.26313,-21.824545
1556489446684,1.3362147,4.517121,1.4601554,0.03476697,0.030442324,-0.54957974,-6.0830173,-42.467514,-21.925943
1556489446690,0.27758938,3.767461,3.3187375,0.03476697,0.030442324,-0.54957974,-6.0830173,-42.467514,-21.925943
1556489446700,0.27758938,3.767461,3.3187375,-0.092009455,-0.12882723,-0.57035404,-6.0830173,-42.467514,-21.925943
1556489446704,0.27758938,3.767461,3.3187375,-0.092009455,-0.12882723,-0.57035404,-4.277296,-42.81035,-21.717913
1556489446710,-0.94150627,3.9063754,3.7642224,-0.092009455,-0.12882723,-0.57035404,-4.277296,-42.81035,-21.717913
1556489446720,-0.94150627,3.9063754,3.7642224,0.2574247,-0.37865138,-0.37752607,-4.277296,-42.81035,-21.717913
1556489446724,-0.94150627,3.9063754,3.7642224,0.2574247,-0.37865138,-0.37752607,-7.759094,-42.897278,-21.943449
1556489446740,-0.94150627,3.9063754,3.7642224,0.7240472,-0.3653345,-0.12663661,-7.759094,-42.897278,-21.943449
1556489446731,-0.5487132,4.4955654,1.718824,0.7240472,-0.3653345,-0.12663661,-7.759094,-42.897278,-21.943449
1556489446744,-0.5487132,4.4955654,1.718824,0.7240472,-0.3653345,-0.12663661,-5.406517,-42.124847,-20.710546
1556489446751,-0.6804426,5.451202,0.26022032,0.7240472,-0.3653345,-0.12663661,-5.406517,-42.124847,-20.710546
1556489446760,-0.6804426,5.451202,0.26022032,0.76825917,-0.16078767,-0.035549335,-5.406517,-42.124847,-20.710546
1556489446764,-0.6804426,5.451202,0.26022032,0.76825917,-0.16078767,-0.035549335,-5.492504,-43.963745,-20.019598
1556489446780,-0.6804426,5.451202,0.26022032,0.60952234,-0.13681734,0.11253406,-5.492504,-43.963745,-20.019598
1556489446771,-0.92474073,5.980515,0.16920727,0.60952234,-0.13681734,0.11253406,-5.492504,-43.963745,-20.019598
1556489446784,-0.92474073,5.980515,0.16920727,0.60952234,-0.13681734,0.11253406,-8.249174,-42.65204,-18.925333
1556489446791,-0.5295525,6.318221,0.35602355,0.60952234,-0.13681734,0.11253406,-8.249174,-42.65204,-18.925333
1556489446799,-0.5295525,6.318221,0.35602355,0.52376175,-0.26519176,0.34264925,-8.249174,-42.65204,-18.925333
1556489446804,-0.5295525,6.318221,0.35602355,0.52376175,-0.26519176,0.34264925,-8.753815,-42.83999,-19.53597
1556489446811,0.49793676,6.260739,0.23626952,0.52376175,-0.26519176,0.34264925,-8.753815,-42.83999,-19.53597
1556489446820,0.49793676,6.260739,0.23626952,0.48753992,-0.28490072,0.45823953,-8.753815,-42.83999,-19.53597
1556489446824,0.49793676,6.260739,0.23626952,0.48753992,-0.28490072,0.45823953,-7.405039,-42.30535,-18.922522
1556489446831,1.2907082,7.0463257,-0.25472188,0.48753992,-0.28490072,0.45823953,-7.405039,-42.30535,-18.922522
1556489446841,1.2907082,7.0463257,-0.25472188,0.41989028,-0.1868887,0.39325327,-7.405039,-42.30535,-18.922522
1556489446844,1.2907082,7.0463257,-0.25472188,0.41989028,-0.1868887,0.39325327,-7.430519,-42.821533,-17.835169
1556489446851,1.7577488,7.1708694,0.50212336,0.41989028,-0.1868887,0.39325327,-7.430519,-42.821533,-17.835169
1556489446861,1.7577488,7.1708694,0.50212336,0.29684258,-0.11817374,0.20095794,-7.430519,-42.821533,-17.835169
1556489446864,1.7577488,7.1708694,0.50212336,0.29684258,-0.11817374,0.20095794,-7.09227,-42.6502,-17.227468
1556489446871,1.0895214,7.2259564,0.58595115,0.29684258,-0.11817374,0.20095794,-7.09227,-42.6502,-17.227468
1556489446881,1.0895214,7.2259564,0.58595115,0.34797928,0.041095804,-0.029157247,-7.09227,-42.6502,-17.227468
1556489446884,1.0895214,7.2259564,0.58595115,0.34797928,0.041095804,-0.029157247,-7.123068,-43.306046,-16.893877
1556489446891,1.0679657,7.4127727,-0.31699395,0.34797928,0.041095804,-0.029157247,-7.123068,-43.306046,-16.893877
1556489446901,1.0679657,7.4127727,-0.31699395,0.47688645,0.16574153,-0.12929997,-7.123068,-43.306046,-16.893877
1556489446904,1.0679657,7.4127727,-0.31699395,0.47688645,0.16574153,-0.12929997,-10.117271,-43.61302,-17.70648
1556489446912,0.8979151,7.666651,-1.2798162,0.47688645,0.16574153,-0.12929997,-10.117271,-43.61302,-17.70648
1556489446920,0.8979151,7.666651,-1.2798162,0.47049433,0.23232578,-0.18523076,-10.117271,-43.61302,-17.70648
1556489446924,0.8979151,7.666651,-1.2798162,0.47049433,0.23232578,-0.18523076,-6.934469,-42.74019,-14.787533
1556489446941,0.8979151,7.666651,-1.2798162,0.32347628,0.17266628,-0.21612585,-6.934469,-42.74019,-14.787533
1556489446932,0.8787545,8.088184,-1.1001852,0.32347628,0.17266628,-0.21612585,-6.934469,-42.74019,-14.787533
1556489446944,0.8787545,8.088184,-1.1001852,0.32347628,0.17266628,-0.21612585,-8.961145,-43.60331,-15.248915
1556489446952,0.64643174,7.853467,-0.8487017,0.32347628,0.17266628,-0.21612585,-8.961145,-43.60331,-15.248915
1556489446961,0.64643174,7.853467,-0.8487017,0.25582668,0.19184256,-0.25501105,-8.961145,-43.60331,-15.248915
1556489446964,0.64643174,7.853467,-0.8487017,0.25582668,0.19184256,-0.25501105,-6.850954,-44.593956,-17.132467
1556489446972,0.5985301,8.021123,-1.8234993,0.25582668,0.19184256,-0.25501105,-6.850954,-44.593956,-17.132467
1556489446981,0.5985301,8.021123,-1.8234993,0.22120288,0.35377547,-0.27844873,-6.850954,-44.593956,-17.132467
1556489446984,0.5985301,8.021123,-1.8234993,0.22120288,0.35377547,-0.27844873,-7.524315,-44.774902,-15.4669285
1556489446992,0.12909445,8.243865,-1.8618205,0.22120288,0.35377547,-0.27844873,-7.524315,-44.774902,-15.4669285
1556489447001,0.12909445,8.243865,-1.8618205,0.07791358,0.26801494,-0.22038724,-7.524315,-44.774902,-15.4669285
1556489447004,0.12909445,8.243865,-1.8618205,0.07791358,0.26801494,-0.22038724,-5.114683,-42.838318,-16.414675
1556489447012,-0.064907044,8.375593,-1.3708292,0.07791358,0.26801494,-0.22038724,-5.114683,-42.838318,-16.414675
1556489447021,-0.064907044,8.375593,-1.3708292,-0.022229154,0.06559881,-0.06165036,-5.114683,-42.838318,-16.414675
1556489447024,-0.064907044,8.375593,-1.3708292,-0.022229154,0.06559881,-0.06165036,-6.5314617,-44.813293,-16.051115
1556489447041,-0.064907044,8.375593,-1.3708292,-0.018500436,-0.062775634,0.09442314,-6.5314617,-44.813293,-16.051115
1556489447032,0.33746636,8.332482,-1.1432966,-0.018500436,-0.062775634,0.09442314,-6.5314617,-44.813293,-16.051115
1556489447044,0.33746636,8.332482,-1.1432966,-0.018500436,-0.062775634,0.09442314,-4.632725,-43.194893,-17.451616
1556489447052,0.5673941,8.68456,-1.3564587,-0.018500436,-0.062775634,0.09442314,-4.632725,-43.194893,-17.451616
1556489447061,0.5673941,8.68456,-1.3564587,-0.031817287,-0.057981573,0.14502716,-4.632725,-43.194893,-17.451616
1556489447064,0.5673941,8.68456,-1.3564587,-0.031817287,-0.057981573,0.14502716,-4.8249016,-43.724533,-16.063318
1556489447072,0.804507,9.295305,-1.2390999,-0.031817287,-0.057981573,0.14502716,-4.8249016,-43.724533,-16.063318
1556489447082,0.804507,9.295305,-1.2390999,-0.13995011,-0.04732809,0.14236379,-4.8249016,-43.724533,-16.063318
1556489447084,0.804507,9.295305,-1.2390999,-0.13995011,-0.04732809,0.14236379,-6.79138,-43.261787,-15.824411
1556489447092,1.2020903,9.556369,-0.49662495,-0.13995011,-0.04732809,0.14236379,-6.79138,-43.261787,-15.824411
1556489447102,1.2020903,9.556369,-0.49662495,-0.2656612,-0.029749848,0.102413245,-6.79138,-43.261787,-15.824411
1556489447104,1.2020903,9.556369,-0.49662495,-0.2656612,-0.029749848,0.102413245,-7.18482,-44.616165,-16.074755
1556489447112,0.96737236,9.498886,0.21231872,-0.2656612,-0.029749848,0.102413245,-7.18482,-44.616165,-16.074755
1556489447122,0.96737236,9.498886,0.21231872,-0.2661939,-0.05957959,0.027306203,-7.18482,-44.616165,-16.074755
1556489447124,0.96737236,9.498886,0.21231872,-0.2661939,-0.05957959,0.027306203,-6.1497498,-43.72724,-16.244715
1556489447141,0.96737236,9.498886,0.21231872,-0.14261349,-0.073429115,0.0049338927,-6.1497498,-43.72724,-16.244715
1556489447133,0.91707575,9.910841,0.080589324,-0.14261349,-0.073429115,0.0049338927,-6.1497498,-43.72724,-16.244715
1556489447144,0.91707575,9.910841,0.080589324,-0.14261349,-0.073429115,0.0049338927,-6.678623,-44.443962,-16.983526
1556489447153,1.0009035,10.114423,-0.49902004,-0.14261349,-0.073429115,0.0049338927,-6.678623,-44.443962,-16.983526
1556489447162,1.0009035,10.114423,-0.49902004,-0.065908425,-0.048926108,-0.0014581957,-6.678623,-44.443962,-16.983526
1556489447164,1.0009035,10.114423,-0.49902004,-0.065908425,-0.048926108,-0.0014581957,-6.6293793,-43.394295,-17.486883
1556489447173,1.0128789,10.50003,-0.5972183,-0.065908425,-0.048926108,-0.0014581957,-6.6293793,-43.394295,-17.486883
1556489447182,1.0128789,10.50003,-0.5972183,-0.13675407,-0.068635054,-0.024363179,-6.6293793,-43.394295,-17.486883
1556489447184,1.0128789,10.50003,-0.5972183,-0.13675407,-0.068635054,-0.024363179,-7.794874,-43.50274,-16.747751
1556489447193,0.45722038,10.222201,0.46140704,-0.13675407,-0.068635054,-0.024363179,-7.794874,-43.50274,-16.747751
1556489447202,0.45722038,10.222201,0.46140704,-0.25181168,-0.1085856,-0.06324838,-7.794874,-43.50274,-16.747751
1556489447204,0.45722038,10.222201,0.46140704,-0.25181168,-0.1085856,-0.06324838,-6.617962,-43.122818,-16.739061
1556489447213,-0.09604308,10.181485,0.80390346,-0.25181168,-0.1085856,-0.06324838,-6.617962,-43.122818,-16.739061
1556489447222,-0.09604308,10.181485,0.80390346,-0.20120762,-0.0574489,-0.04833351,-6.617962,-43.122818,-16.739061
1556489447224,-0.09604308,10.181485,0.80390346,-0.20120762,-0.0574489,-0.04833351,-6.4559593,-43.255325,-18.40153
1556489447233,-0.37387237,10.286868,0.21950395,-0.20120762,-0.0574489,-0.04833351,-6.4559593,-43.255325,-18.40153
1556489447242,-0.37387237,10.286868,0.21950395,-0.060581684,-0.05158948,0.048080496,-6.4559593,-43.255325,-18.40153
1556489447244,-0.37387237,10.286868,0.21950395,-0.060581684,-0.05158948,0.048080496,-6.6603317,-44.04857,-17.001352
1556489447253,0.05963712,10.140767,0.35123336,-0.060581684,-0.05158948,0.048080496,-6.6603317,-44.04857,-17.001352
1556489447261,0.05963712,10.140767,0.35123336,-0.008379628,-0.18315998,0.2036213,-6.6603317,-44.04857,-17.001352
1556489447264,0.05963712,10.140767,0.35123336,-0.008379628,-0.18315998,0.2036213,-6.5982685,-42.741592,-18.124353
1556489447273,0.9841381,10.159929,0.6530134,-0.008379628,-0.18315998,0.2036213,-6.5982685,-42.741592,-18.124353
1556489447282,0.9841381,10.159929,0.6530134,0.008665941,-0.22257785,0.26168278,-6.5982685,-42.741592,-18.124353
1556489447284,0.9841381,10.159929,0.6530134,0.008665941,-0.22257785,0.26168278,-6.78998,-43.275963,-17.191885
1556489447293,1.8128357,10.361116,0.17399745,0.008665941,-0.22257785,0.26168278,-6.78998,-43.275963,-17.191885
1556489447302,1.8128357,10.361116,0.17399745,0.027842205,-0.04519739,0.10028255,-6.78998,-43.275963,-17.191885
1556489447304,1.8128357,10.361116,0.17399745,0.027842205,-0.04519739,0.10028255,-6.6290665,-43.397446,-17.790766
1556489447313,1.3218442,10.49045,-0.42477256,0.027842205,-0.04519739,0.10028255,-6.6290665,-43.397446,-17.790766
1556489447322,1.3218442,10.49045,-0.42477256,-0.037144028,0.1540227,-0.1884268,-6.6290665,-43.397446,-17.790766
1556489447324,1.3218442,10.49045,-0.42477256,-0.037144028,0.1540227,-0.1884268,-6.555586,-41.819,-18.165949
1556489447342,1.3218442,10.49045,-0.42477256,-0.19268484,0.17053561,-0.34396762,-6.555586,-41.819,-18.165949
1556489447334,0.5242827,10.49045,0.01352708,-0.19268484,0.17053561,-0.34396762,-6.555586,-41.819,-18.165949
1556489447344,0.5242827,10.49045,0.01352708,-0.19268484,0.17053561,-0.34396762,-7.109316,-43.05819,-18.425169
1556489447353,-0.110413566,10.095262,0.9571886,-0.19268484,0.17053561,-0.34396762,-7.109316,-43.05819,-18.425169
1556489447363,-0.110413566,10.095262,0.9571886,-0.24169086,0.05814137,-0.3178666,-7.109316,-43.05819,-18.425169
1556489447364,-0.110413566,10.095262,0.9571886,-0.24169086,0.05814137,-0.3178666,-5.6122913,-42.903915,-17.9429
1556489447373,-0.56547874,9.781507,1.4122539,-0.24169086,0.05814137,-0.3178666,-5.6122913,-42.903915,-17.9429
1556489447383,-0.56547874,9.781507,1.4122539,-0.09840155,-0.07822318,-0.17564262,-5.6122913,-42.903915,-17.9429
1556489447384,-0.56547874,9.781507,1.4122539,-0.09840155,-0.07822318,-0.17564262,-6.0055733,-44.259865,-18.345179
1556489447394,-0.3595019,9.848568,0.92844766,-0.09840155,-0.07822318,-0.17564262,-6.0055733,-44.259865,-18.345179
1556489447402,-0.3595019,9.848568,0.92844766,0.10880867,-0.10325887,-0.0051869135,-6.0055733,-44.259865,-18.345179
1556489447404,-0.3595019,9.848568,0.92844766,0.10880867,-0.10325887,-0.0051869135,-6.647358,-43.79284,-17.77294
1556489447414,0.356627,10.088077,-0.15173344,0.10880867,-0.10325887,-0.0051869135,-6.647358,-43.79284,-17.77294
1556489447423,0.356627,10.088077,-0.15173344,0.19883059,0.0048739677,0.051276542,-6.647358,-43.79284,-17.77294
1556489447424,0.356627,10.088077,-0.15173344,0.19883059,0.0048739677,0.051276542,-5.5242367,-44.610138,-18.774363
1556489447434,0.34465167,10.138373,-0.35292014,0.19883059,0.0048739677,0.051276542,-5.5242367,-44.610138,-18.774363
1556489447443,0.34465167,10.138373,-0.35292014,0.09495914,0.068794854,-0.019036438,-5.5242367,-44.610138,-18.774363
1556489447444,0.34465167,10.138373,-0.35292014,0.09495914,0.068794854,-0.019036438,-5.642311,-43.567635,-18.369009
1556489447454,0.052451886,9.939582,0.26501048,0.09495914,0.068794854,-0.019036438,-5.642311,-43.567635,-18.369009
1556489447462,0.052451886,9.939582,0.26501048,-0.018500436,0.03683441,-0.045137472,-5.642311,-43.567635,-18.369009
1556489447464,0.052451886,9.939582,0.26501048,-0.018500436,0.03683441,-0.045137472,-4.9842567,-43.618797,-16.983847
1556489447474,-0.14633976,9.673727,0.6386429,-0.018500436,0.03683441,-0.045137472,-4.9842567,-43.618797,-16.983847
1556489447483,-0.14633976,9.673727,0.6386429,-0.003585563,-0.029749848,0.0150547,-4.9842567,-43.618797,-16.983847
1556489447484,-0.14633976,9.673727,0.6386429,-0.003585563,-0.029749848,0.0150547,-6.685856,-41.040092,-17.748713
1556489447494,-0.012215279,9.719234,0.5524201,-0.003585563,-0.029749848,0.0150547,-6.685856,-41.040092,-17.748713
1556489447502,-0.012215279,9.719234,0.5524201,0.0795116,-0.09367073,0.10614197,-6.685856,-41.040092,-17.748713
1556489447504,-0.012215279,9.719234,0.5524201,0.0795116,-0.09367073,0.10614197,-4.251011,-42.108833,-17.645212
1556489447523,-0.012215279,9.719234,0.5524201,0.14023644,-0.11071629,0.14183111,-4.251011,-42.108833,-17.645212
1556489447514,0.22489762,9.611456,0.46859226,0.14023644,-0.11071629,0.14183111,-4.251011,-42.108833,-17.645212
1556489447524,0.22489762,9.611456,0.46859226,0.14023644,-0.11071629,0.14183111,-5.512041,-44.346542,-18.786245
1556489447543,0.22489762,9.611456,0.46859226,0.1759256,-0.060644947,0.11519743,-5.512041,-44.346542,-18.786245
1556489447534,0.21531731,9.587504,0.18357778,0.1759256,-0.060644947,0.11519743,-5.512041,-44.346542,-18.786245
1556489447543,0.21531731,9.587504,0.18357778,0.1759256,-0.060644947,0.11519743,-6.617962,-43.122818,-16.739061
1556489447563,0.21531731,9.587504,0.18357778,0.15515131,0.044824522,0.082171634,-6.617962,-43.122818,-16.739061
1556489447555,0.07161252,9.546789,-0.5493167,0.15515131,0.044824522,0.082171634,-6.617962,-43.122818,-16.739061
1556489447564,0.07161252,9.546789,-0.5493167,0.15515131,0.044824522,0.082171634,-7.763609,-42.851616,-17.537165
1556489447583,0.07161252,9.546789,-0.5493167,0.041691735,0.08797111,0.11040336,-7.763609,-42.851616,-17.537165
1556489447575,-0.24693313,9.688099,-1.3205324,0.041691735,0.08797111,0.11040336,-7.763609,-42.851616,-17.537165
1556489447584,-0.24693313,9.688099,-1.3205324,0.041691735,0.08797111,0.11040336,-5.785244,-43.047607,-17.484072
1556489447595,0.15544033,9.870124,-0.82475096,0.041691735,0.08797111,0.11040336,-5.785244,-43.047607,-17.484072
1556489447603,0.15544033,9.870124,-0.82475096,-0.1585937,-0.014302299,0.21001339,-5.785244,-43.047607,-17.484072
1556489447604,0.15544033,9.870124,-0.82475096,-0.1585937,-0.014302299,0.21001339,-8.312016,-43.951134,-17.042624
1556489447624,0.15544033,9.870124,-0.82475096,-0.30188304,-0.088343985,0.26807487,-8.312016,-43.951134,-17.042624
1556489447615,1.0296445,9.927607,0.03747788,-0.30188304,-0.088343985,0.26807487,-8.312016,-43.951134,-17.042624
1556489447624,1.0296445,9.927607,0.03747788,-0.30188304,-0.088343985,0.26807487,-6.458605,-43.228554,-15.818537
1556489447635,1.2954984,9.831802,0.99550986,-0.30188304,-0.088343985,0.26807487,-6.458605,-43.228554,-15.818537
1556489447643,1.2954984,9.831802,0.99550986,-0.36953264,0.09329786,0.1482232,-6.458605,-43.228554,-15.818537
1556489447644,1.2954984,9.831802,0.99550986,-0.36953264,0.09329786,0.1482232,-6.542923,-41.56012,-18.633654
1556489447655,0.64882684,9.460566,1.2661538,-0.36953264,0.09329786,0.1482232,-6.542923,-41.56012,-18.633654
1556489447663,0.64882684,9.460566,1.2661538,-0.25234434,0.37774578,-0.06378105,-6.542923,-41.56012,-18.633654
1556489447664,0.64882684,9.460566,1.2661538,-0.25234434,0.37774578,-0.06378105,-7.3573494,-41.239937,-17.90647
1556489447675,0.10753872,9.362367,0.3847645,-0.25234434,0.37774578,-0.06378105,-7.3573494,-41.239937,-17.90647
1556489447683,0.10753872,9.362367,0.3847645,-0.011042998,0.45072213,-0.102133594,-7.3573494,-41.239937,-17.90647
1556489447684,0.10753872,9.362367,0.3847645,-0.011042998,0.45072213,-0.102133594,-7.6527176,-44.014893,-16.872984
1556489447695,0.34465167,9.501282,-0.07030072,-0.011042998,0.45072213,-0.102133594,-7.6527176,-44.014893,-16.872984
1556489447704,0.34465167,9.501282,-0.07030072,0.123190865,0.18118908,0.03849236,-7.6527176,-44.014893,-16.872984
1556489447704,0.34465167,9.501282,-0.07030072,0.123190865,0.18118908,0.03849236,-5.9758644,-43.592995,-17.615183
1556489447724,0.34465167,9.501282,-0.07030072,0.17486024,-0.19168276,0.17325889,-5.9758644,-43.592995,-17.615183
1556489447715,0.9865331,9.747975,-8.4340014E-4,0.17486024,-0.19168276,0.17325889,-5.9758644,-43.592995,-17.615183
1556489447724,0.9865331,9.747975,-8.4340014E-4,0.17486024,-0.19168276,0.17325889,-7.893255,-42.07901,-17.727694
1556489447744,0.9865331,9.747975,-8.4340014E-4,0.13650772,-0.16717975,0.13437368,-7.893255,-42.07901,-17.727694
1556489447735,1.3314246,10.068915,-0.67625594,0.13650772,-0.16717975,0.13437368,-7.893255,-42.07901,-17.727694
1556489447744,1.3314246,10.068915,-0.67625594,0.13650772,-0.16717975,0.13437368,-6.776539,-43.024956,-18.41929
1556489447764,1.3314246,10.068915,-0.67625594,-0.031284615,-0.0068448624,-0.008915633,-6.776539,-43.024956,-18.41929
1556489447755,1.3410048,10.332375,-0.707392,-0.031284615,-0.0068448624,-0.008915633,-6.776539,-43.024956,-18.41929
1556489447764,1.3410048,10.332375,-0.707392,-0.031284615,-0.0068448624,-0.008915633,-5.7846203,-43.05391,-18.091837
1556489447784,1.3410048,10.332375,-0.707392,-0.228374,0.23445648,-0.17457727,-5.7846203,-43.05391,-18.091837
1556489447776,1.3697459,10.044965,-0.5756626,-0.228374,0.23445648,-0.17457727,-5.7846203,-43.05391,-18.091837
1556489447784,1.3697459,10.044965,-0.5756626,-0.228374,0.23445648,-0.17457727,-7.4484997,-43.220078,-18.121225
1556489447804,1.3697459,10.044965,-0.5756626,-0.228374,0.23445648,-0.17457727,-6.648449,-43.781815,-16.709352
1556489447795,0.6176908,10.083286,-0.30741364,-0.228374,0.23445648,-0.17457727,-6.648449,-43.781815,-16.709352
1556489447805,0.6176908,10.083286,-0.30741364,-0.41694066,0.2770704,-0.30454972,-6.648449,-43.781815,-16.709352
1556489447816,0.0141306,10.19825,0.07340408,-0.41694066,0.2770704,-0.30454972,-6.648449,-43.781815,-16.709352
1556489447824,0.0141306,10.19825,0.07340408,-0.54478234,0.23179312,-0.3242587,-6.648449,-43.781815,-16.709352
1556489447824,0.0141306,10.19825,0.07340408,-0.54478234,0.23179312,-0.3242587,-5.752577,-42.41066,-19.640955
1556489447844,0.0141306,10.19825,0.07340408,-0.54478234,0.23179312,-0.3242587,-4.13138,-43.167084,-19.569971
1556489447835,-0.17029056,9.865334,-0.23077108,-0.54478234,0.23179312,-0.3242587,-4.13138,-43.167084,-19.569971
1556489447844,-0.17029056,9.865334,-0.23077108,-0.64172906,0.49386874,-0.32212797,-4.13138,-43.167084,-19.569971
1556489447864,-0.17029056,9.865334,-0.23077108,-0.64172906,0.49386874,-0.32212797,-5.4491997,-43.047447,-20.668951
1556489447855,-0.14633976,10.6605,-0.35292014,-0.64172906,0.49386874,-0.32212797,-5.4491997,-43.047447,-20.668951
1556489447865,-0.14633976,10.6605,-0.35292014,-0.84734124,0.70267695,-0.27685067,-5.4491997,-43.047447,-20.668951
1556489447884,-0.14633976,10.6605,-0.35292014,-0.84734124,0.70267695,-0.27685067,-3.0806923,-42.04921,-23.094515
1556489447875,-0.117598794,10.155138,-0.17568424,-0.84734124,0.70267695,-0.27685067,-3.0806923,-42.04921,-23.094515
1556489447885,-0.117598794,10.155138,-0.17568424,-1.1690766,0.71439576,-0.20334166,-3.0806923,-42.04921,-23.094515
1556489447904,-0.117598794,10.155138,-0.17568424,-1.1690766,0.71439576,-0.20334166,-5.079216,-42.229713,-21.30649
1556489447896,-0.57745415,9.491701,0.7009151,-1.1690766,0.71439576,-0.20334166,-5.079216,-42.229713,-21.30649
1556489447905,-0.57745415,9.491701,0.7009151,-1.4247601,0.4784212,-0.12610394,-5.079216,-42.229713,-21.30649
1556489447924,-0.57745415,9.491701,0.7009151,-1.4247601,0.4784212,-0.12610394,-5.424076,-39.00348,-23.287142
1556489447915,-0.8001966,9.043822,0.97634923,-1.4247601,0.4784212,-0.12610394,-5.424076,-39.00348,-23.287142
1556489447925,-0.8001966,9.043822,0.97634923,-1.4865502,0.34152398,0.017718071,-5.424076,-39.00348,-23.287142
1556489447944,-0.8001966,9.043822,0.97634923,-1.4865502,0.34152398,0.017718071,-3.1459427,-39.993248,-26.687166
1556489447935,-0.13675943,9.065378,1.656552,-1.4865502,0.34152398,0.017718071,-3.1459427,-39.993248,-26.687166
1556489447945,-0.13675943,9.065378,1.656552,-1.4194332,0.13857514,0.18391237,-3.1459427,-39.993248,-26.687166
1556489447964,-0.13675943,9.065378,1.656552,-1.4194332,0.13857514,0.18391237,-1.9826279,-39.862762,-25.299124
1556489447956,0.87635946,9.3144655,1.840973,-1.4194332,0.13857514,0.18391237,-1.9826279,-39.862762,-25.299124
1556489447964,0.87635946,9.3144655,1.840973,-1.3762866,0.21155149,0.2675422,-1.9826279,-39.862762,-25.299124
1556489447984,0.87635946,9.3144655,1.840973,-1.3762866,0.21155149,0.2675422,-4.4026337,-38.557198,-27.997503
